"participant","Expra.Code","pract_resp.keys","pract_resp.corr","pract_resp.rt","myownaccuracyCORR","character","left_categ","centleft_categ","centright_categ","right_categ","trial_cond","corr_ans","corr_ans_num","type","img","task_response.keys","task_response.corr","task_response.rt","condition"
24,NA,NA,0,NA,0,"stimuli/m_red.jpg","stimuli/Food.png","stimuli/Gamestoy & entertainment.png","stimuli/Vehicle.png","stimuli/Clothing.png",1,"Food",1,1,"stimuli/objects/chocolatecroissant.jpg",NA,NA,NA,NA
24,NA,2,0,1.1854,0,"stimuli/m_red.jpg","stimuli/Clothing.png","stimuli/Food.png","stimuli/Gamestoy & entertainment.png","stimuli/Vehicle.png",0,"Vehicle",4,0,"stimuli/objects/tricycle.jpg",NA,NA,NA,NA
24,NA,3,0,2.1145,0,"stimuli/m_blue.jpg","stimuli/Vehicle.png","stimuli/Clothing.png","stimuli/Gamestoy & entertainment.png","stimuli/Food.png",0,"Food",4,0,"stimuli/objects/cracker02.jpg",NA,NA,NA,NA
24,NA,1,0,1.7606,0,"stimuli/m_red.jpg","stimuli/Clothing.png","stimuli/Vehicle.png","stimuli/Gamestoy & entertainment.png","stimuli/Food.png",1,"Food",4,1,"stimuli/objects/hotdog.jpg",NA,NA,NA,NA
24,NA,4,0,1.9091,0,"stimuli/m_red.jpg","stimuli/Clothing.png","stimuli/Gamestoy & entertainment.png","stimuli/Food.png","stimuli/Vehicle.png",1,"Food",3,1,"stimuli/objects/kiwi03.jpg",NA,NA,NA,NA
24,NA,2,0,2.9095,0,"stimuli/m_red.jpg","stimuli/Vehicle.png","stimuli/Gamestoy & entertainment.png","stimuli/Food.png","stimuli/Clothing.png",1,"Food",3,1,"stimuli/objects/greenolive.jpg",NA,NA,NA,NA
24,NA,2,0,1.5438,0,"stimuli/m_blue.jpg","stimuli/Food.png","stimuli/Clothing.png","stimuli/Vehicle.png","stimuli/Gamestoy & entertainment.png",1,"Gamestoy & entertainment",4,1,"stimuli/objects/paperairplane.jpg",NA,NA,NA,NA
24,NA,4,0,1.5811,0,"stimuli/m_blue.jpg","stimuli/Vehicle.png","stimuli/Gamestoy & entertainment.png","stimuli/Food.png","stimuli/Clothing.png",1,"Gamestoy & entertainment",2,1,"stimuli/objects/toyanimal02.jpg",NA,NA,NA,NA
24,NA,1,0,1.3583,0,"stimuli/m_red.jpg","stimuli/Vehicle.png","stimuli/Clothing.png","stimuli/Gamestoy & entertainment.png","stimuli/Food.png",1,"Food",4,1,"stimuli/objects/casabamelon.jpg",NA,NA,NA,NA
24,NA,2,0,2.3511,0,"stimuli/m_blue.jpg","stimuli/Gamestoy & entertainment.png","stimuli/Clothing.png","stimuli/Vehicle.png","stimuli/Food.png",1,"Gamestoy & entertainment",1,1,"stimuli/objects/paddleball.jpg",NA,NA,NA,NA
24,NA,4,0,2.7835,0,"stimuli/m_blue.jpg","stimuli/Gamestoy & entertainment.png","stimuli/Clothing.png","stimuli/Food.png","stimuli/Vehicle.png",1,"Gamestoy & entertainment",1,1,"stimuli/objects/rockinghorse.jpg",NA,NA,NA,NA
24,NA,4,0,1.5481,0,"stimuli/m_red.jpg","stimuli/Vehicle.png","stimuli/Food.png","stimuli/Clothing.png","stimuli/Gamestoy & entertainment.png",1,"Food",2,1,"stimuli/objects/arugula.jpg",NA,NA,NA,NA
24,NA,NA,0,NA,0,"stimuli/m_blue.jpg","stimuli/Food.png","stimuli/Clothing.png","stimuli/Gamestoy & entertainment.png","stimuli/Vehicle.png",1,"Gamestoy & entertainment",3,1,"stimuli/objects/dartboard.jpg",NA,NA,NA,NA
24,NA,NA,0,NA,0,"stimuli/m_red.jpg","stimuli/Clothing.png","stimuli/Gamestoy & entertainment.png","stimuli/Vehicle.png","stimuli/Food.png",1,"Food",4,1,"stimuli/objects/chickenshishkebab.jpg",NA,NA,NA,NA
24,NA,NA,0,NA,0,"stimuli/m_red.jpg","stimuli/Clothing.png","stimuli/Gamestoy & entertainment.png","stimuli/Food.png","stimuli/Vehicle.png",1,"Food",3,1,"stimuli/objects/relish.jpg",NA,NA,NA,NA
24,NA,NA,0,NA,0,"stimuli/m_blue.jpg","stimuli/Food.png","stimuli/Gamestoy & entertainment.png","stimuli/Clothing.png","stimuli/Vehicle.png",1,"Gamestoy & entertainment",2,1,"stimuli/objects/toyanimal01.jpg",NA,NA,NA,NA
24,NA,NA,0,NA,0,"stimuli/m_red.jpg","stimuli/Food.png","stimuli/Vehicle.png","stimuli/Clothing.png","stimuli/Gamestoy & entertainment.png",0,"Gamestoy & entertainment",4,0,"stimuli/objects/toyshape.jpg",NA,NA,NA,NA
24,NA,NA,0,NA,0,"stimuli/m_blue.jpg","stimuli/Food.png","stimuli/Gamestoy & entertainment.png","stimuli/Vehicle.png","stimuli/Clothing.png",1,"Gamestoy & entertainment",2,1,"stimuli/objects/rattle.jpg",NA,NA,NA,NA
24,NA,NA,0,NA,0,"stimuli/m_blue.jpg","stimuli/Clothing.png","stimuli/Food.png","stimuli/Gamestoy & entertainment.png","stimuli/Vehicle.png",0,"Vehicle",4,0,"stimuli/objects/cementtruck.jpg",NA,NA,NA,NA
24,NA,NA,0,NA,0,"stimuli/m_red.jpg","stimuli/Vehicle.png","stimuli/Gamestoy & entertainment.png","stimuli/Clothing.png","stimuli/Food.png",0,"Vehicle",1,0,"stimuli/objects/scissorlift.jpg",NA,NA,NA,NA
24,NA,NA,0,NA,0,"stimuli/m_blue.jpg","stimuli/Gamestoy & entertainment.png","stimuli/Food.png","stimuli/Vehicle.png","stimuli/Clothing.png",1,"Gamestoy & entertainment",1,1,"stimuli/objects/toydinosaur.jpg",NA,NA,NA,NA
24,NA,NA,0,NA,0,"stimuli/m_blue.jpg","stimuli/Clothing.png","stimuli/Vehicle.png","stimuli/Food.png","stimuli/Gamestoy & entertainment.png",1,"Gamestoy & entertainment",4,1,"stimuli/objects/sandbagthrowgame.jpg",NA,NA,NA,NA
24,NA,NA,0,NA,0,"stimuli/m_blue.jpg","stimuli/Food.png","stimuli/Gamestoy & entertainment.png","stimuli/Clothing.png","stimuli/Vehicle.png",0,"Clothing",3,0,"stimuli/objects/hikingshoe01.jpg",NA,NA,NA,NA
24,NA,NA,0,NA,0,"stimuli/m_blue.jpg","stimuli/Food.png","stimuli/Clothing.png","stimuli/Vehicle.png","stimuli/Gamestoy & entertainment.png",1,"Gamestoy & entertainment",4,1,"stimuli/objects/beachpaddle01a.jpg",NA,NA,NA,NA
24,NA,NA,0,NA,0,"stimuli/m_red.jpg","stimuli/Food.png","stimuli/Gamestoy & entertainment.png","stimuli/Clothing.png","stimuli/Vehicle.png",1,"Food",1,1,"stimuli/objects/apricot.jpg",NA,NA,NA,NA
24,NA,NA,0,NA,0,"stimuli/m_blue.jpg","stimuli/Food.png","stimuli/Vehicle.png","stimuli/Gamestoy & entertainment.png","stimuli/Clothing.png",0,"Food",1,0,"stimuli/objects/croissant01.jpg",NA,NA,NA,NA
24,NA,NA,0,NA,0,"stimuli/m_red.jpg","stimuli/Clothing.png","stimuli/Food.png","stimuli/Vehicle.png","stimuli/Gamestoy & entertainment.png",1,"Food",2,1,"stimuli/objects/icecreamcone01a.jpg",NA,NA,NA,NA
24,NA,NA,0,NA,0,"stimuli/m_blue.jpg","stimuli/Clothing.png","stimuli/Food.png","stimuli/Vehicle.png","stimuli/Gamestoy & entertainment.png",0,"Clothing",1,0,"stimuli/objects/tie02.jpg",NA,NA,NA,NA
24,NA,NA,0,NA,0,"stimuli/m_blue.jpg","stimuli/Vehicle.png","stimuli/Gamestoy & entertainment.png","stimuli/Clothing.png","stimuli/Food.png",1,"Gamestoy & entertainment",2,1,"stimuli/objects/marble.jpg",NA,NA,NA,NA
24,NA,NA,0,NA,0,"stimuli/m_red.jpg","stimuli/Gamestoy & entertainment.png","stimuli/Vehicle.png","stimuli/Food.png","stimuli/Clothing.png",1,"Food",3,1,"stimuli/objects/baguette01.jpg",NA,NA,NA,NA
24,NA,NA,0,NA,0,"stimuli/m_blue.jpg","stimuli/Gamestoy & entertainment.png","stimuli/Vehicle.png","stimuli/Food.png","stimuli/Clothing.png",1,"Gamestoy & entertainment",1,1,"stimuli/objects/pusharoundtoy.jpg",NA,NA,NA,NA
24,NA,NA,0,NA,0,"stimuli/m_blue.jpg","stimuli/Food.png","stimuli/Vehicle.png","stimuli/Clothing.png","stimuli/Gamestoy & entertainment.png",1,"Gamestoy & entertainment",4,1,"stimuli/objects/puzzlepiece.jpg",NA,NA,NA,NA
24,NA,1,1,2.8621,1,"stimuli/m_blue.jpg","stimuli/Gamestoy & entertainment.png","stimuli/Vehicle.png","stimuli/Clothing.png","stimuli/Food.png",1,"Gamestoy & entertainment",1,1,"stimuli/objects/interlockingbuildingblock03b.jpg",NA,NA,NA,NA
24,NA,4,1,1.5838,1,"stimuli/m_blue.jpg","stimuli/Vehicle.png","stimuli/Food.png","stimuli/Clothing.png","stimuli/Gamestoy & entertainment.png",1,"Gamestoy & entertainment",4,1,"stimuli/objects/airhockeytable.jpg",NA,NA,NA,NA
24,NA,2,1,2.6136,1,"stimuli/m_red.jpg","stimuli/Vehicle.png","stimuli/Food.png","stimuli/Gamestoy & entertainment.png","stimuli/Clothing.png",1,"Food",2,1,"stimuli/objects/tortilla.jpg",NA,NA,NA,NA
24,NA,4,0,2.6472,1,"stimuli/m_red.jpg","stimuli/Clothing.png","stimuli/Vehicle.png","stimuli/Gamestoy & entertainment.png","stimuli/Food.png",0,"Gamestoy & entertainment",3,0,"stimuli/objects/chessknight03a.jpg",NA,NA,NA,NA
24,NA,1,0,2.6691,0,"stimuli/m_blue.jpg","stimuli/Clothing.png","stimuli/Food.png","stimuli/Gamestoy & entertainment.png","stimuli/Vehicle.png",1,"Gamestoy & entertainment",3,1,"stimuli/objects/toyanimal05.jpg",NA,NA,NA,NA
24,NA,4,1,1.1501,1,"stimuli/m_blue.jpg","stimuli/Vehicle.png","stimuli/Food.png","stimuli/Clothing.png","stimuli/Gamestoy & entertainment.png",1,"Gamestoy & entertainment",4,1,"stimuli/objects/puppettheatre.jpg",NA,NA,NA,NA
24,NA,3,0,1.2271,1,"stimuli/m_blue.jpg","stimuli/Gamestoy & entertainment.png","stimuli/Clothing.png","stimuli/Vehicle.png","stimuli/Food.png",0,"Food",4,0,"stimuli/objects/salsa.jpg",NA,NA,NA,NA
24,NA,2,0,1.1764,0,"stimuli/m_red.jpg","stimuli/Gamestoy & entertainment.png","stimuli/Vehicle.png","stimuli/Clothing.png","stimuli/Food.png",1,"Food",4,1,"stimuli/objects/walnut01c.jpg",NA,NA,NA,NA
24,NA,3,0,2.045,0,"stimuli/m_red.jpg","stimuli/Gamestoy & entertainment.png","stimuli/Clothing.png","stimuli/Vehicle.png","stimuli/Food.png",1,"Food",4,1,"stimuli/objects/potato02b.jpg",NA,NA,NA,NA
24,NA,3,0,1.3405,0,"stimuli/m_blue.jpg","stimuli/Clothing.png","stimuli/Vehicle.png","stimuli/Gamestoy & entertainment.png","stimuli/Food.png",0,"Clothing",1,0,"stimuli/objects/sheriffhat.jpg",NA,NA,NA,NA
24,NA,4,1,0.793,1,"stimuli/m_red.jpg","stimuli/Vehicle.png","stimuli/Gamestoy & entertainment.png","stimuli/Clothing.png","stimuli/Food.png",1,"Food",4,1,"stimuli/objects/spaghetti01.jpg",NA,NA,NA,NA
24,NA,4,1,0.8959,1,"stimuli/m_red.jpg","stimuli/Gamestoy & entertainment.png","stimuli/Vehicle.png","stimuli/Clothing.png","stimuli/Food.png",1,"Food",4,1,"stimuli/objects/zucchini01.jpg",NA,NA,NA,NA
24,NA,NA,0,NA,0,"stimuli/m_red.jpg","stimuli/Gamestoy & entertainment.png","stimuli/Vehicle.png","stimuli/Food.png","stimuli/Clothing.png",1,"Food",3,1,"stimuli/objects/donut.jpg",NA,NA,NA,NA
24,NA,2,1,0.9226,1,"stimuli/m_blue.jpg","stimuli/Clothing.png","stimuli/Gamestoy & entertainment.png","stimuli/Food.png","stimuli/Vehicle.png",1,"Gamestoy & entertainment",2,1,"stimuli/objects/bridgestick.jpg",NA,NA,NA,NA
24,NA,1,1,1.6658,1,"stimuli/m_red.jpg","stimuli/Food.png","stimuli/Clothing.png","stimuli/Vehicle.png","stimuli/Gamestoy & entertainment.png",1,"Food",1,1,"stimuli/objects/cookie01.jpg",NA,NA,NA,NA
24,NA,2,0,0.9169,1,"stimuli/m_red.jpg","stimuli/Clothing.png","stimuli/Food.png","stimuli/Vehicle.png","stimuli/Gamestoy & entertainment.png",0,"Gamestoy & entertainment",4,0,"stimuli/objects/rubikcube.jpg",NA,NA,NA,NA
24,NA,3,1,0.9354,1,"stimuli/m_red.jpg","stimuli/Clothing.png","stimuli/Vehicle.png","stimuli/Food.png","stimuli/Gamestoy & entertainment.png",1,"Food",3,1,"stimuli/objects/grape01.jpg",NA,NA,NA,NA
24,NA,2,0,1.1937,1,"stimuli/m_blue.jpg","stimuli/Vehicle.png","stimuli/Gamestoy & entertainment.png","stimuli/Clothing.png","stimuli/Food.png",0,"Vehicle",1,0,"stimuli/objects/schoolbus.jpg",NA,NA,NA,NA
24,NA,1,1,1.4661,1,"stimuli/m_blue.jpg","stimuli/Gamestoy & entertainment.png","stimuli/Vehicle.png","stimuli/Food.png","stimuli/Clothing.png",1,"Gamestoy & entertainment",1,1,"stimuli/objects/pooltable.jpg",NA,NA,NA,NA
24,NA,1,0,0.9107,1,"stimuli/m_red.jpg","stimuli/Food.png","stimuli/Gamestoy & entertainment.png","stimuli/Clothing.png","stimuli/Vehicle.png",0,"Gamestoy & entertainment",2,0,"stimuli/objects/toyanimal03.jpg",NA,NA,NA,NA
24,NA,1,1,2.0758,1,"stimuli/m_red.jpg","stimuli/Food.png","stimuli/Clothing.png","stimuli/Vehicle.png","stimuli/Gamestoy & entertainment.png",1,"Food",1,1,"stimuli/objects/almond.jpg",NA,NA,NA,NA
24,NA,3,1,0.8077,1,"stimuli/m_blue.jpg","stimuli/Clothing.png","stimuli/Vehicle.png","stimuli/Gamestoy & entertainment.png","stimuli/Food.png",1,"Gamestoy & entertainment",3,1,"stimuli/objects/jokercard.jpg",NA,NA,NA,NA
24,NA,NA,NA,NA,NA,"stimuli/m_black.jpg","stimuli/Hand labour tool & accessory.png","stimuli/Outdoor activity & sport item.png","stimuli/Kitchen & utensil.png","stimuli/Electronic device & accessory.png",NA,"Outdoor activity & sport item",2,1,"stimuli/objects/gymnasticring.jpg",2,1,0.9811,1
24,NA,NA,NA,NA,NA,"stimuli/m_black.jpg","stimuli/Outdoor activity & sport item.png","stimuli/Kitchen & utensil.png","stimuli/Electronic device & accessory.png","stimuli/Hand labour tool & accessory.png",NA,"Outdoor activity & sport item",1,1,"stimuli/objects/exercisebench.jpg",1,1,1.6021,1
24,NA,NA,NA,NA,NA,"stimuli/m_orange.jpg","stimuli/Outdoor activity & sport item.png","stimuli/Kitchen & utensil.png","stimuli/Hand labour tool & accessory.png","stimuli/Electronic device & accessory.png",NA,"Hand labour tool & accessory",3,1,"stimuli/objects/jumpercables.jpg",NA,0,NA,0
24,NA,NA,NA,NA,NA,"stimuli/m_orange.jpg","stimuli/Electronic device & accessory.png","stimuli/Hand labour tool & accessory.png","stimuli/Kitchen & utensil.png","stimuli/Outdoor activity & sport item.png",NA,"Hand labour tool & accessory",2,1,"stimuli/objects/pipewrench.jpg",1,0,1.0257,0
24,NA,NA,NA,NA,NA,"stimuli/m_orange.jpg","stimuli/Kitchen & utensil.png","stimuli/Hand labour tool & accessory.png","stimuli/Outdoor activity & sport item.png","stimuli/Electronic device & accessory.png",NA,"Hand labour tool & accessory",2,1,"stimuli/objects/tape02a.jpg",2,1,1.616,0
24,NA,NA,NA,NA,NA,"stimuli/m_black.jpg","stimuli/Kitchen & utensil.png","stimuli/Hand labour tool & accessory.png","stimuli/Outdoor activity & sport item.png","stimuli/Electronic device & accessory.png",NA,"Outdoor activity & sport item",3,1,"stimuli/objects/swing.jpg",3,1,0.9186,1
24,NA,NA,NA,NA,NA,"stimuli/m_black.jpg","stimuli/Hand labour tool & accessory.png","stimuli/Electronic device & accessory.png","stimuli/Kitchen & utensil.png","stimuli/Outdoor activity & sport item.png",NA,"Kitchen & utensil",3,0,"stimuli/objects/tray.jpg",4,0,0.9446,1
24,NA,NA,NA,NA,NA,"stimuli/m_orange.jpg","stimuli/Hand labour tool & accessory.png","stimuli/Outdoor activity & sport item.png","stimuli/Electronic device & accessory.png","stimuli/Kitchen & utensil.png",NA,"Hand labour tool & accessory",1,1,"stimuli/objects/wirestripper.jpg",1,1,1.281,0
24,NA,NA,NA,NA,NA,"stimuli/m_orange.jpg","stimuli/Outdoor activity & sport item.png","stimuli/Electronic device & accessory.png","stimuli/Kitchen & utensil.png","stimuli/Hand labour tool & accessory.png",NA,"Hand labour tool & accessory",4,1,"stimuli/objects/carjack.jpg",4,1,2.3051,0
24,NA,NA,NA,NA,NA,"stimuli/m_orange.jpg","stimuli/Electronic device & accessory.png","stimuli/Outdoor activity & sport item.png","stimuli/Hand labour tool & accessory.png","stimuli/Kitchen & utensil.png",NA,"Hand labour tool & accessory",3,1,"stimuli/objects/hedgeshears.jpg",3,1,1.0856,0
24,NA,NA,NA,NA,NA,"stimuli/m_orange.jpg","stimuli/Kitchen & utensil.png","stimuli/Outdoor activity & sport item.png","stimuli/Electronic device & accessory.png","stimuli/Hand labour tool & accessory.png",NA,"Hand labour tool & accessory",4,1,"stimuli/objects/jumpingjack.jpg",3,0,1.817,0
24,NA,NA,NA,NA,NA,"stimuli/m_black.jpg","stimuli/Electronic device & accessory.png","stimuli/Kitchen & utensil.png","stimuli/Hand labour tool & accessory.png","stimuli/Outdoor activity & sport item.png",NA,"Outdoor activity & sport item",4,1,"stimuli/objects/beachumbrella01.jpg",4,1,1.5013,1
24,NA,NA,NA,NA,NA,"stimuli/m_orange.jpg","stimuli/Kitchen & utensil.png","stimuli/Outdoor activity & sport item.png","stimuli/Electronic device & accessory.png","stimuli/Hand labour tool & accessory.png",NA,"Hand labour tool & accessory",4,1,"stimuli/objects/metalbrush.jpg",1,0,3.902,0
24,NA,NA,NA,NA,NA,"stimuli/m_orange.jpg","stimuli/Outdoor activity & sport item.png","stimuli/Electronic device & accessory.png","stimuli/Kitchen & utensil.png","stimuli/Hand labour tool & accessory.png",NA,"Hand labour tool & accessory",4,1,"stimuli/objects/gavel.jpg",4,1,2.1772,0
24,NA,NA,NA,NA,NA,"stimuli/m_black.jpg","stimuli/Outdoor activity & sport item.png","stimuli/Electronic device & accessory.png","stimuli/Hand labour tool & accessory.png","stimuli/Kitchen & utensil.png",NA,"Hand labour tool & accessory",3,0,"stimuli/objects/shopvac.jpg",1,0,1.3755,1
24,NA,NA,NA,NA,NA,"stimuli/m_orange.jpg","stimuli/Kitchen & utensil.png","stimuli/Outdoor activity & sport item.png","stimuli/Hand labour tool & accessory.png","stimuli/Electronic device & accessory.png",NA,"Hand labour tool & accessory",3,1,"stimuli/objects/file.jpg",3,1,2.9411,0
24,NA,NA,NA,NA,NA,"stimuli/m_orange.jpg","stimuli/Kitchen & utensil.png","stimuli/Electronic device & accessory.png","stimuli/Outdoor activity & sport item.png","stimuli/Hand labour tool & accessory.png",NA,"Hand labour tool & accessory",4,1,"stimuli/objects/gardenshears01a.jpg",4,1,2.0853,0
24,NA,NA,NA,NA,NA,"stimuli/m_black.jpg","stimuli/Kitchen & utensil.png","stimuli/Hand labour tool & accessory.png","stimuli/Electronic device & accessory.png","stimuli/Outdoor activity & sport item.png",NA,"Electronic device & accessory",3,0,"stimuli/objects/avcable.jpg",4,0,1.718,1
24,NA,NA,NA,NA,NA,"stimuli/m_orange.jpg","stimuli/Kitchen & utensil.png","stimuli/Electronic device & accessory.png","stimuli/Hand labour tool & accessory.png","stimuli/Outdoor activity & sport item.png",NA,"Hand labour tool & accessory",3,1,"stimuli/objects/bowrake.jpg",2,0,1.8849,0
24,NA,NA,NA,NA,NA,"stimuli/m_black.jpg","stimuli/Kitchen & utensil.png","stimuli/Hand labour tool & accessory.png","stimuli/Outdoor activity & sport item.png","stimuli/Electronic device & accessory.png",NA,"Outdoor activity & sport item",3,1,"stimuli/objects/bikepump01.jpg",3,1,0.9832,1
24,NA,NA,NA,NA,NA,"stimuli/m_black.jpg","stimuli/Outdoor activity & sport item.png","stimuli/Hand labour tool & accessory.png","stimuli/Kitchen & utensil.png","stimuli/Electronic device & accessory.png",NA,"Outdoor activity & sport item",1,1,"stimuli/objects/golfball.jpg",1,1,1.4012,1
24,NA,NA,NA,NA,NA,"stimuli/m_black.jpg","stimuli/Kitchen & utensil.png","stimuli/Outdoor activity & sport item.png","stimuli/Electronic device & accessory.png","stimuli/Hand labour tool & accessory.png",NA,"Hand labour tool & accessory",4,0,"stimuli/objects/caulking.jpg",2,0,1.1119,1
24,NA,NA,NA,NA,NA,"stimuli/m_orange.jpg","stimuli/Electronic device & accessory.png","stimuli/Kitchen & utensil.png","stimuli/Outdoor activity & sport item.png","stimuli/Hand labour tool & accessory.png",NA,"Hand labour tool & accessory",4,1,"stimuli/objects/staplegun.jpg",NA,0,NA,0
24,NA,NA,NA,NA,NA,"stimuli/m_black.jpg","stimuli/Electronic device & accessory.png","stimuli/Hand labour tool & accessory.png","stimuli/Kitchen & utensil.png","stimuli/Outdoor activity & sport item.png",NA,"Outdoor activity & sport item",4,1,"stimuli/objects/tennisball01b.jpg",4,1,1.3269,1
24,NA,NA,NA,NA,NA,"stimuli/m_black.jpg","stimuli/Kitchen & utensil.png","stimuli/Electronic device & accessory.png","stimuli/Outdoor activity & sport item.png","stimuli/Hand labour tool & accessory.png",NA,"Outdoor activity & sport item",3,1,"stimuli/objects/umbrella04.jpg",3,1,0.975,1
24,NA,NA,NA,NA,NA,"stimuli/m_orange.jpg","stimuli/Hand labour tool & accessory.png","stimuli/Electronic device & accessory.png","stimuli/Outdoor activity & sport item.png","stimuli/Kitchen & utensil.png",NA,"Hand labour tool & accessory",1,1,"stimuli/objects/flashlight02b.jpg",2,0,2.3706,0
24,NA,NA,NA,NA,NA,"stimuli/m_orange.jpg","stimuli/Kitchen & utensil.png","stimuli/Hand labour tool & accessory.png","stimuli/Outdoor activity & sport item.png","stimuli/Electronic device & accessory.png",NA,"Hand labour tool & accessory",2,1,"stimuli/objects/lock03a.jpg",2,1,2.2512,0
24,NA,NA,NA,NA,NA,"stimuli/m_orange.jpg","stimuli/Electronic device & accessory.png","stimuli/Outdoor activity & sport item.png","stimuli/Kitchen & utensil.png","stimuli/Hand labour tool & accessory.png",NA,"Hand labour tool & accessory",4,1,"stimuli/objects/sledgehammer.jpg",1,0,0.8346,0
24,NA,NA,NA,NA,NA,"stimuli/m_black.jpg","stimuli/Electronic device & accessory.png","stimuli/Outdoor activity & sport item.png","stimuli/Kitchen & utensil.png","stimuli/Hand labour tool & accessory.png",NA,"Outdoor activity & sport item",2,1,"stimuli/objects/binoculars01b.jpg",2,1,1.5494,1
24,NA,NA,NA,NA,NA,"stimuli/m_black.jpg","stimuli/Outdoor activity & sport item.png","stimuli/Kitchen & utensil.png","stimuli/Hand labour tool & accessory.png","stimuli/Electronic device & accessory.png",NA,"Outdoor activity & sport item",1,1,"stimuli/objects/weight01.jpg",1,1,1.5011,1
24,NA,NA,NA,NA,NA,"stimuli/m_black.jpg","stimuli/Kitchen & utensil.png","stimuli/Hand labour tool & accessory.png","stimuli/Outdoor activity & sport item.png","stimuli/Electronic device & accessory.png",NA,"Outdoor activity & sport item",3,1,"stimuli/objects/bikelock.jpg",3,1,0.9792,1
24,NA,NA,NA,NA,NA,"stimuli/m_orange.jpg","stimuli/Outdoor activity & sport item.png","stimuli/Kitchen & utensil.png","stimuli/Hand labour tool & accessory.png","stimuli/Electronic device & accessory.png",NA,"Outdoor activity & sport item",1,0,"stimuli/objects/frisbee.jpg",3,0,3.5751,0
24,NA,NA,NA,NA,NA,"stimuli/m_black.jpg","stimuli/Electronic device & accessory.png","stimuli/Hand labour tool & accessory.png","stimuli/Kitchen & utensil.png","stimuli/Outdoor activity & sport item.png",NA,"Electronic device & accessory",1,0,"stimuli/objects/monitor.jpg",4,0,1.1981,1
24,NA,NA,NA,NA,NA,"stimuli/m_orange.jpg","stimuli/Hand labour tool & accessory.png","stimuli/Kitchen & utensil.png","stimuli/Outdoor activity & sport item.png","stimuli/Electronic device & accessory.png",NA,"Hand labour tool & accessory",1,1,"stimuli/objects/loppingshears.jpg",4,0,2.2089,0
24,NA,NA,NA,NA,NA,"stimuli/m_black.jpg","stimuli/Outdoor activity & sport item.png","stimuli/Kitchen & utensil.png","stimuli/Hand labour tool & accessory.png","stimuli/Electronic device & accessory.png",NA,"Outdoor activity & sport item",1,1,"stimuli/objects/hockeygoalieglove.jpg",1,1,1.6779,1
24,NA,NA,NA,NA,NA,"stimuli/m_black.jpg","stimuli/Hand labour tool & accessory.png","stimuli/Electronic device & accessory.png","stimuli/Outdoor activity & sport item.png","stimuli/Kitchen & utensil.png",NA,"Outdoor activity & sport item",3,1,"stimuli/objects/sportbag.jpg",3,1,1.6771,1
24,NA,NA,NA,NA,NA,"stimuli/m_orange.jpg","stimuli/Hand labour tool & accessory.png","stimuli/Electronic device & accessory.png","stimuli/Kitchen & utensil.png","stimuli/Outdoor activity & sport item.png",NA,"Outdoor activity & sport item",4,0,"stimuli/objects/anchor.jpg",2,0,1.2016,0
24,NA,NA,NA,NA,NA,"stimuli/m_orange.jpg","stimuli/Electronic device & accessory.png","stimuli/Kitchen & utensil.png","stimuli/Hand labour tool & accessory.png","stimuli/Outdoor activity & sport item.png",NA,"Hand labour tool & accessory",3,1,"stimuli/objects/solderingwire.jpg",3,1,2.6144,0
24,NA,NA,NA,NA,NA,"stimuli/m_black.jpg","stimuli/Outdoor activity & sport item.png","stimuli/Kitchen & utensil.png","stimuli/Hand labour tool & accessory.png","stimuli/Electronic device & accessory.png",NA,"Kitchen & utensil",2,0,"stimuli/objects/blender.jpg",1,0,1.2441,1
24,NA,NA,NA,NA,NA,"stimuli/m_orange.jpg","stimuli/Kitchen & utensil.png","stimuli/Electronic device & accessory.png","stimuli/Hand labour tool & accessory.png","stimuli/Outdoor activity & sport item.png",NA,"Hand labour tool & accessory",3,1,"stimuli/objects/gluetube.jpg",1,0,2.7513,0
24,NA,NA,NA,NA,NA,"stimuli/m_black.jpg","stimuli/Electronic device & accessory.png","stimuli/Hand labour tool & accessory.png","stimuli/Kitchen & utensil.png","stimuli/Outdoor activity & sport item.png",NA,"Electronic device & accessory",1,0,"stimuli/objects/alarmsystem.jpg",4,0,1.0282,1
24,NA,NA,NA,NA,NA,"stimuli/m_black.jpg","stimuli/Electronic device & accessory.png","stimuli/Outdoor activity & sport item.png","stimuli/Hand labour tool & accessory.png","stimuli/Kitchen & utensil.png",NA,"Outdoor activity & sport item",2,1,"stimuli/objects/punchingball.jpg",2,1,1.8595,1
24,NA,NA,NA,NA,NA,"stimuli/m_orange.jpg","stimuli/Electronic device & accessory.png","stimuli/Outdoor activity & sport item.png","stimuli/Hand labour tool & accessory.png","stimuli/Kitchen & utensil.png",NA,"Hand labour tool & accessory",3,1,"stimuli/objects/tablesaw.jpg",3,1,2.6783,0
24,NA,NA,NA,NA,NA,"stimuli/m_orange.jpg","stimuli/Outdoor activity & sport item.png","stimuli/Electronic device & accessory.png","stimuli/Hand labour tool & accessory.png","stimuli/Kitchen & utensil.png",NA,"Kitchen & utensil",4,0,"stimuli/objects/bowl02a.jpg",3,0,1.8926,0
24,NA,NA,NA,NA,NA,"stimuli/m_orange.jpg","stimuli/Electronic device & accessory.png","stimuli/Hand labour tool & accessory.png","stimuli/Outdoor activity & sport item.png","stimuli/Kitchen & utensil.png",NA,"Outdoor activity & sport item",3,0,"stimuli/objects/boogieboard.jpg",2,0,1.2634,0
24,NA,NA,NA,NA,NA,"stimuli/m_black.jpg","stimuli/Electronic device & accessory.png","stimuli/Hand labour tool & accessory.png","stimuli/Outdoor activity & sport item.png","stimuli/Kitchen & utensil.png",NA,"Outdoor activity & sport item",3,1,"stimuli/objects/exercisemachine.jpg",3,1,0.9221,1
24,NA,NA,NA,NA,NA,"stimuli/m_black.jpg","stimuli/Hand labour tool & accessory.png","stimuli/Outdoor activity & sport item.png","stimuli/Electronic device & accessory.png","stimuli/Kitchen & utensil.png",NA,"Outdoor activity & sport item",2,1,"stimuli/objects/charcoalbarbecue.jpg",2,1,1.0604,1
24,NA,NA,NA,NA,NA,"stimuli/m_orange.jpg","stimuli/Hand labour tool & accessory.png","stimuli/Outdoor activity & sport item.png","stimuli/Kitchen & utensil.png","stimuli/Electronic device & accessory.png",NA,"Hand labour tool & accessory",1,1,"stimuli/objects/pliers02b.jpg",4,0,2.546,0
24,NA,NA,NA,NA,NA,"stimuli/m_black.jpg","stimuli/Kitchen & utensil.png","stimuli/Hand labour tool & accessory.png","stimuli/Electronic device & accessory.png","stimuli/Outdoor activity & sport item.png",NA,"Hand labour tool & accessory",2,0,"stimuli/objects/painttray.jpg",4,0,0.9919,1
24,NA,NA,NA,NA,NA,"stimuli/m_orange.jpg","stimuli/Hand labour tool & accessory.png","stimuli/Electronic device & accessory.png","stimuli/Kitchen & utensil.png","stimuli/Outdoor activity & sport item.png",NA,"Hand labour tool & accessory",1,1,"stimuli/objects/measuringtape01.jpg",1,1,2.1093,0
24,NA,NA,NA,NA,NA,"stimuli/m_orange.jpg","stimuli/Hand labour tool & accessory.png","stimuli/Kitchen & utensil.png","stimuli/Outdoor activity & sport item.png","stimuli/Electronic device & accessory.png",NA,"Hand labour tool & accessory",1,1,"stimuli/objects/hammer01.jpg",1,1,1.7263,0
24,NA,NA,NA,NA,NA,"stimuli/m_orange.jpg","stimuli/Outdoor activity & sport item.png","stimuli/Hand labour tool & accessory.png","stimuli/Electronic device & accessory.png","stimuli/Kitchen & utensil.png",NA,"Outdoor activity & sport item",1,0,"stimuli/objects/bikehelmet.jpg",1,1,1.9803,0
24,NA,NA,NA,NA,NA,"stimuli/m_orange.jpg","stimuli/Kitchen & utensil.png","stimuli/Hand labour tool & accessory.png","stimuli/Electronic device & accessory.png","stimuli/Outdoor activity & sport item.png",NA,"Electronic device & accessory",3,0,"stimuli/objects/carlighter02.jpg",4,0,1.5155,0
24,NA,NA,NA,NA,NA,"stimuli/m_black.jpg","stimuli/Kitchen & utensil.png","stimuli/Electronic device & accessory.png","stimuli/Hand labour tool & accessory.png","stimuli/Outdoor activity & sport item.png",NA,"Outdoor activity & sport item",4,1,"stimuli/objects/basketballhoop01.jpg",4,1,1.8092,1
24,NA,NA,NA,NA,NA,"stimuli/m_black.jpg","stimuli/Outdoor activity & sport item.png","stimuli/Hand labour tool & accessory.png","stimuli/Kitchen & utensil.png","stimuli/Electronic device & accessory.png",NA,"Kitchen & utensil",3,0,"stimuli/objects/fonduefork01.jpg",1,0,1.5966,1
24,NA,NA,NA,NA,NA,"stimuli/m_black.jpg","stimuli/Kitchen & utensil.png","stimuli/Electronic device & accessory.png","stimuli/Outdoor activity & sport item.png","stimuli/Hand labour tool & accessory.png",NA,"Outdoor activity & sport item",3,1,"stimuli/objects/snowboard.jpg",3,1,1.1301,1
24,NA,NA,NA,NA,NA,"stimuli/m_black.jpg","stimuli/Hand labour tool & accessory.png","stimuli/Electronic device & accessory.png","stimuli/Kitchen & utensil.png","stimuli/Outdoor activity & sport item.png",NA,"Hand labour tool & accessory",1,0,"stimuli/objects/pickaxe02.jpg",4,0,1.3509,1
24,NA,NA,NA,NA,NA,"stimuli/m_black.jpg","stimuli/Electronic device & accessory.png","stimuli/Outdoor activity & sport item.png","stimuli/Kitchen & utensil.png","stimuli/Hand labour tool & accessory.png",NA,"Electronic device & accessory",1,0,"stimuli/objects/cellphone.jpg",2,0,1.5101,1
24,NA,NA,NA,NA,NA,"stimuli/m_black.jpg","stimuli/Hand labour tool & accessory.png","stimuli/Outdoor activity & sport item.png","stimuli/Electronic device & accessory.png","stimuli/Kitchen & utensil.png",NA,"Outdoor activity & sport item",2,1,"stimuli/objects/bowlingball.jpg",2,1,0.9569,1
24,NA,NA,NA,NA,NA,"stimuli/m_black.jpg","stimuli/Outdoor activity & sport item.png","stimuli/Hand labour tool & accessory.png","stimuli/Electronic device & accessory.png","stimuli/Kitchen & utensil.png",NA,"Outdoor activity & sport item",1,1,"stimuli/objects/podium.jpg",1,1,1.3282,1
24,NA,NA,NA,NA,NA,"stimuli/m_orange.jpg","stimuli/Outdoor activity & sport item.png","stimuli/Electronic device & accessory.png","stimuli/Hand labour tool & accessory.png","stimuli/Kitchen & utensil.png",NA,"Hand labour tool & accessory",3,1,"stimuli/objects/cheeseknife01.jpg",1,0,1.4157,0
24,NA,NA,NA,NA,NA,"stimuli/m_black.jpg","stimuli/Electronic device & accessory.png","stimuli/Kitchen & utensil.png","stimuli/Hand labour tool & accessory.png","stimuli/Outdoor activity & sport item.png",NA,"Outdoor activity & sport item",4,1,"stimuli/objects/magneticcompass.jpg",4,1,1.1564,1
24,NA,NA,NA,NA,NA,"stimuli/m_black.jpg","stimuli/Electronic device & accessory.png","stimuli/Hand labour tool & accessory.png","stimuli/Outdoor activity & sport item.png","stimuli/Kitchen & utensil.png",NA,"Outdoor activity & sport item",3,1,"stimuli/objects/bikewheel.jpg",3,1,1.7795,1
24,NA,NA,NA,NA,NA,"stimuli/m_black.jpg","stimuli/Kitchen & utensil.png","stimuli/Outdoor activity & sport item.png","stimuli/Hand labour tool & accessory.png","stimuli/Electronic device & accessory.png",NA,"Outdoor activity & sport item",2,1,"stimuli/objects/reflector.jpg",2,1,1.0244,1
24,NA,NA,NA,NA,NA,"stimuli/m_black.jpg","stimuli/Hand labour tool & accessory.png","stimuli/Outdoor activity & sport item.png","stimuli/Kitchen & utensil.png","stimuli/Electronic device & accessory.png",NA,"Electronic device & accessory",4,0,"stimuli/objects/scanner.jpg",2,0,0.6261,1
24,NA,NA,NA,NA,NA,"stimuli/m_black.jpg","stimuli/Kitchen & utensil.png","stimuli/Outdoor activity & sport item.png","stimuli/Electronic device & accessory.png","stimuli/Hand labour tool & accessory.png",NA,"Outdoor activity & sport item",2,1,"stimuli/objects/swimgoggles.jpg",2,1,0.8011,1
24,NA,NA,NA,NA,NA,"stimuli/m_black.jpg","stimuli/Hand labour tool & accessory.png","stimuli/Kitchen & utensil.png","stimuli/Outdoor activity & sport item.png","stimuli/Electronic device & accessory.png",NA,"Outdoor activity & sport item",3,1,"stimuli/objects/tennisracket.jpg",3,1,1.7923,1
24,NA,NA,NA,NA,NA,"stimuli/m_black.jpg","stimuli/Outdoor activity & sport item.png","stimuli/Electronic device & accessory.png","stimuli/Kitchen & utensil.png","stimuli/Hand labour tool & accessory.png",NA,"Outdoor activity & sport item",1,1,"stimuli/objects/toyhockeystick01.jpg",1,1,1.2664,1
24,NA,NA,NA,NA,NA,"stimuli/m_orange.jpg","stimuli/Hand labour tool & accessory.png","stimuli/Electronic device & accessory.png","stimuli/Outdoor activity & sport item.png","stimuli/Kitchen & utensil.png",NA,"Kitchen & utensil",4,0,"stimuli/objects/styrofoamcup.jpg",3,0,1.5114,0
24,NA,NA,NA,NA,NA,"stimuli/m_black.jpg","stimuli/Electronic device & accessory.png","stimuli/Kitchen & utensil.png","stimuli/Outdoor activity & sport item.png","stimuli/Hand labour tool & accessory.png",NA,"Outdoor activity & sport item",3,1,"stimuli/objects/volleyball.jpg",3,1,1.3603,1
24,NA,NA,NA,NA,NA,"stimuli/m_black.jpg","stimuli/Electronic device & accessory.png","stimuli/Hand labour tool & accessory.png","stimuli/Outdoor activity & sport item.png","stimuli/Kitchen & utensil.png",NA,"Kitchen & utensil",4,0,"stimuli/objects/oven.jpg",3,0,1.6759,1
24,NA,NA,NA,NA,NA,"stimuli/m_orange.jpg","stimuli/Outdoor activity & sport item.png","stimuli/Hand labour tool & accessory.png","stimuli/Kitchen & utensil.png","stimuli/Electronic device & accessory.png",NA,"Outdoor activity & sport item",1,0,"stimuli/objects/snowshoe.jpg",2,0,2.091,0
24,NA,NA,NA,NA,NA,"stimuli/m_black.jpg","stimuli/Outdoor activity & sport item.png","stimuli/Electronic device & accessory.png","stimuli/Hand labour tool & accessory.png","stimuli/Kitchen & utensil.png",NA,"Outdoor activity & sport item",1,1,"stimuli/objects/skipole.jpg",1,1,1.1024,1
24,NA,NA,NA,NA,NA,"stimuli/m_orange.jpg","stimuli/Electronic device & accessory.png","stimuli/Kitchen & utensil.png","stimuli/Hand labour tool & accessory.png","stimuli/Outdoor activity & sport item.png",NA,"Hand labour tool & accessory",3,1,"stimuli/objects/puttyknife.jpg",4,0,1.3483,0
24,NA,NA,NA,NA,NA,"stimuli/m_orange.jpg","stimuli/Outdoor activity & sport item.png","stimuli/Kitchen & utensil.png","stimuli/Hand labour tool & accessory.png","stimuli/Electronic device & accessory.png",NA,"Hand labour tool & accessory",3,1,"stimuli/objects/bungeecord02.jpg",2,0,1.0352,0
24,NA,NA,NA,NA,NA,"stimuli/m_orange.jpg","stimuli/Electronic device & accessory.png","stimuli/Kitchen & utensil.png","stimuli/Hand labour tool & accessory.png","stimuli/Outdoor activity & sport item.png",NA,"Hand labour tool & accessory",3,1,"stimuli/objects/jackhammer.jpg",1,0,0.6855,0
24,NA,NA,NA,NA,NA,"stimuli/m_black.jpg","stimuli/Kitchen & utensil.png","stimuli/Outdoor activity & sport item.png","stimuli/Hand labour tool & accessory.png","stimuli/Electronic device & accessory.png",NA,"Outdoor activity & sport item",2,1,"stimuli/objects/kneepad01c.jpg",2,1,1.1344,1
24,NA,NA,NA,NA,NA,"stimuli/m_black.jpg","stimuli/Hand labour tool & accessory.png","stimuli/Kitchen & utensil.png","stimuli/Outdoor activity & sport item.png","stimuli/Electronic device & accessory.png",NA,"Outdoor activity & sport item",3,1,"stimuli/objects/golfbag.jpg",3,1,1.4477,1
24,NA,NA,NA,NA,NA,"stimuli/m_black.jpg","stimuli/Outdoor activity & sport item.png","stimuli/Electronic device & accessory.png","stimuli/Hand labour tool & accessory.png","stimuli/Kitchen & utensil.png",NA,"Outdoor activity & sport item",1,1,"stimuli/objects/birdie.jpg",1,1,0.9635,1
24,NA,NA,NA,NA,NA,"stimuli/m_orange.jpg","stimuli/Hand labour tool & accessory.png","stimuli/Outdoor activity & sport item.png","stimuli/Kitchen & utensil.png","stimuli/Electronic device & accessory.png",NA,"Electronic device & accessory",4,0,"stimuli/objects/chandelier.jpg",3,0,2.0971,0
24,NA,NA,NA,NA,NA,"stimuli/m_orange.jpg","stimuli/Hand labour tool & accessory.png","stimuli/Outdoor activity & sport item.png","stimuli/Electronic device & accessory.png","stimuli/Kitchen & utensil.png",NA,"Hand labour tool & accessory",1,1,"stimuli/objects/drillbit03a.jpg",4,0,1.3126,0
24,NA,NA,NA,NA,NA,"stimuli/m_black.jpg","stimuli/Hand labour tool & accessory.png","stimuli/Electronic device & accessory.png","stimuli/Outdoor activity & sport item.png","stimuli/Kitchen & utensil.png",NA,"Hand labour tool & accessory",1,0,"stimuli/objects/solderingiron.jpg",3,0,2.2468,1
24,NA,NA,NA,NA,NA,"stimuli/m_black.jpg","stimuli/Hand labour tool & accessory.png","stimuli/Electronic device & accessory.png","stimuli/Kitchen & utensil.png","stimuli/Outdoor activity & sport item.png",NA,"Outdoor activity & sport item",4,1,"stimuli/objects/lifesaver.jpg",4,1,1.3119,1
24,NA,NA,NA,NA,NA,"stimuli/m_black.jpg","stimuli/Hand labour tool & accessory.png","stimuli/Kitchen & utensil.png","stimuli/Electronic device & accessory.png","stimuli/Outdoor activity & sport item.png",NA,"Outdoor activity & sport item",4,1,"stimuli/objects/propanetank01.jpg",4,1,0.9919,1
24,NA,NA,NA,NA,NA,"stimuli/m_orange.jpg","stimuli/Hand labour tool & accessory.png","stimuli/Kitchen & utensil.png","stimuli/Outdoor activity & sport item.png","stimuli/Electronic device & accessory.png",NA,"Hand labour tool & accessory",1,1,"stimuli/objects/cuttingpliers02.jpg",1,1,1.0596,0
24,NA,NA,NA,NA,NA,"stimuli/m_black.jpg","stimuli/Kitchen & utensil.png","stimuli/Outdoor activity & sport item.png","stimuli/Electronic device & accessory.png","stimuli/Hand labour tool & accessory.png",NA,"Outdoor activity & sport item",2,1,"stimuli/objects/skigoggles01.jpg",2,1,0.933,1
24,NA,NA,NA,NA,NA,"stimuli/m_orange.jpg","stimuli/Hand labour tool & accessory.png","stimuli/Kitchen & utensil.png","stimuli/Electronic device & accessory.png","stimuli/Outdoor activity & sport item.png",NA,"Electronic device & accessory",3,0,"stimuli/objects/securitycamera.jpg",4,0,1.2259,0
24,NA,NA,NA,NA,NA,"stimuli/m_orange.jpg","stimuli/Electronic device & accessory.png","stimuli/Hand labour tool & accessory.png","stimuli/Outdoor activity & sport item.png","stimuli/Kitchen & utensil.png",NA,"Hand labour tool & accessory",2,1,"stimuli/objects/pylon01.jpg",4,0,1.216,0
24,NA,NA,NA,NA,NA,"stimuli/m_orange.jpg","stimuli/Hand labour tool & accessory.png","stimuli/Electronic device & accessory.png","stimuli/Kitchen & utensil.png","stimuli/Outdoor activity & sport item.png",NA,"Kitchen & utensil",3,0,"stimuli/objects/pot01.jpg",3,1,1.2189,0
24,NA,NA,NA,NA,NA,"stimuli/m_black.jpg","stimuli/Electronic device & accessory.png","stimuli/Kitchen & utensil.png","stimuli/Hand labour tool & accessory.png","stimuli/Outdoor activity & sport item.png",NA,"Outdoor activity & sport item",4,1,"stimuli/objects/surfboard.jpg",4,1,1.2829,1
24,NA,NA,NA,NA,NA,"stimuli/m_black.jpg","stimuli/Electronic device & accessory.png","stimuli/Outdoor activity & sport item.png","stimuli/Hand labour tool & accessory.png","stimuli/Kitchen & utensil.png",NA,"Outdoor activity & sport item",2,1,"stimuli/objects/cooler01.jpg",2,1,1.7091,1
24,NA,NA,NA,NA,NA,"stimuli/m_orange.jpg","stimuli/Outdoor activity & sport item.png","stimuli/Hand labour tool & accessory.png","stimuli/Kitchen & utensil.png","stimuli/Electronic device & accessory.png",NA,"Hand labour tool & accessory",2,1,"stimuli/objects/adjustablewrench01b.jpg",3,0,0.9363,0
24,NA,NA,NA,NA,NA,"stimuli/m_orange.jpg","stimuli/Outdoor activity & sport item.png","stimuli/Kitchen & utensil.png","stimuli/Electronic device & accessory.png","stimuli/Hand labour tool & accessory.png",NA,"Hand labour tool & accessory",4,1,"stimuli/objects/cclamp.jpg",3,0,3.1331,0
24,NA,NA,NA,NA,NA,"stimuli/m_orange.jpg","stimuli/Electronic device & accessory.png","stimuli/Hand labour tool & accessory.png","stimuli/Kitchen & utensil.png","stimuli/Outdoor activity & sport item.png",NA,"Electronic device & accessory",1,0,"stimuli/objects/videocamera01a.jpg",1,1,1.4375,0
24,NA,NA,NA,NA,NA,"stimuli/m_orange.jpg","stimuli/Electronic device & accessory.png","stimuli/Outdoor activity & sport item.png","stimuli/Kitchen & utensil.png","stimuli/Hand labour tool & accessory.png",NA,"Electronic device & accessory",1,0,"stimuli/objects/walkman.jpg",4,0,2.1728,0
24,NA,NA,NA,NA,NA,"stimuli/m_orange.jpg","stimuli/Kitchen & utensil.png","stimuli/Electronic device & accessory.png","stimuli/Outdoor activity & sport item.png","stimuli/Hand labour tool & accessory.png",NA,"Hand labour tool & accessory",4,1,"stimuli/objects/wheel01.jpg",4,1,0.8267,0
24,NA,NA,NA,NA,NA,"stimuli/m_black.jpg","stimuli/Outdoor activity & sport item.png","stimuli/Hand labour tool & accessory.png","stimuli/Electronic device & accessory.png","stimuli/Kitchen & utensil.png",NA,"Kitchen & utensil",4,0,"stimuli/objects/cleaver01.jpg",1,0,1.1177,1
24,NA,NA,NA,NA,NA,"stimuli/m_orange.jpg","stimuli/Electronic device & accessory.png","stimuli/Hand labour tool & accessory.png","stimuli/Kitchen & utensil.png","stimuli/Outdoor activity & sport item.png",NA,"Electronic device & accessory",1,0,"stimuli/objects/spotlight.jpg",2,0,1.2191,0
24,NA,NA,NA,NA,NA,"stimuli/m_black.jpg","stimuli/Kitchen & utensil.png","stimuli/Electronic device & accessory.png","stimuli/Hand labour tool & accessory.png","stimuli/Outdoor activity & sport item.png",NA,"Outdoor activity & sport item",4,1,"stimuli/objects/badmintonracket.jpg",4,1,1.4057,1
24,NA,NA,NA,NA,NA,"stimuli/m_orange.jpg","stimuli/Kitchen & utensil.png","stimuli/Electronic device & accessory.png","stimuli/Outdoor activity & sport item.png","stimuli/Hand labour tool & accessory.png",NA,"Hand labour tool & accessory",4,1,"stimuli/objects/bucket02.jpg",3,0,1.8597,0
24,NA,NA,NA,NA,NA,"stimuli/m_orange.jpg","stimuli/Kitchen & utensil.png","stimuli/Outdoor activity & sport item.png","stimuli/Hand labour tool & accessory.png","stimuli/Electronic device & accessory.png",NA,"Hand labour tool & accessory",3,1,"stimuli/objects/stepladder.jpg",1,0,1.0652,0
24,NA,NA,NA,NA,NA,"stimuli/m_black.jpg","stimuli/Outdoor activity & sport item.png","stimuli/Kitchen & utensil.png","stimuli/Electronic device & accessory.png","stimuli/Hand labour tool & accessory.png",NA,"Kitchen & utensil",2,0,"stimuli/objects/kitchenscale01a.jpg",1,0,0.968,1
24,NA,NA,NA,NA,NA,"stimuli/m_orange.jpg","stimuli/Hand labour tool & accessory.png","stimuli/Outdoor activity & sport item.png","stimuli/Electronic device & accessory.png","stimuli/Kitchen & utensil.png",NA,"Hand labour tool & accessory",1,1,"stimuli/objects/metalscissors.jpg",4,0,1.312,0
24,NA,NA,NA,NA,NA,"stimuli/m_black.jpg","stimuli/Hand labour tool & accessory.png","stimuli/Kitchen & utensil.png","stimuli/Electronic device & accessory.png","stimuli/Outdoor activity & sport item.png",NA,"Electronic device & accessory",3,0,"stimuli/objects/coffeemachine.jpg",4,0,1.1405,1
24,NA,NA,NA,NA,NA,"stimuli/m_orange.jpg","stimuli/Electronic device & accessory.png","stimuli/Hand labour tool & accessory.png","stimuli/Outdoor activity & sport item.png","stimuli/Kitchen & utensil.png",NA,"Hand labour tool & accessory",2,1,"stimuli/objects/mitresaw.jpg",4,0,2.3217,0
24,NA,NA,NA,NA,NA,"stimuli/m_orange.jpg","stimuli/Hand labour tool & accessory.png","stimuli/Electronic device & accessory.png","stimuli/Outdoor activity & sport item.png","stimuli/Kitchen & utensil.png",NA,"Kitchen & utensil",4,0,"stimuli/objects/grater01a.jpg",4,1,1.0943,0
24,NA,NA,NA,NA,NA,"stimuli/m_orange.jpg","stimuli/Kitchen & utensil.png","stimuli/Electronic device & accessory.png","stimuli/Hand labour tool & accessory.png","stimuli/Outdoor activity & sport item.png",NA,"Hand labour tool & accessory",3,1,"stimuli/objects/leafblower01.jpg",4,0,0.4184,0
24,NA,NA,NA,NA,NA,"stimuli/m_black.jpg","stimuli/Hand labour tool & accessory.png","stimuli/Kitchen & utensil.png","stimuli/Outdoor activity & sport item.png","stimuli/Electronic device & accessory.png",NA,"Outdoor activity & sport item",3,1,"stimuli/objects/footballhelmet.jpg",3,1,1.319,1
24,NA,NA,NA,NA,NA,"stimuli/m_black.jpg","stimuli/Hand labour tool & accessory.png","stimuli/Outdoor activity & sport item.png","stimuli/Electronic device & accessory.png","stimuli/Kitchen & utensil.png",NA,"Outdoor activity & sport item",2,1,"stimuli/objects/baseball01a.jpg",2,1,2.1343,1
24,NA,NA,NA,NA,NA,"stimuli/m_black.jpg","stimuli/Kitchen & utensil.png","stimuli/Electronic device & accessory.png","stimuli/Outdoor activity & sport item.png","stimuli/Hand labour tool & accessory.png",NA,"Outdoor activity & sport item",3,1,"stimuli/objects/bicycle.jpg",3,1,1.2338,1
24,NA,NA,NA,NA,NA,"stimuli/m_black.jpg","stimuli/Hand labour tool & accessory.png","stimuli/Electronic device & accessory.png","stimuli/Outdoor activity & sport item.png","stimuli/Kitchen & utensil.png",NA,"Hand labour tool & accessory",1,0,"stimuli/objects/mallet01b.jpg",3,0,1.9353,1
24,NA,NA,NA,NA,NA,"stimuli/m_black.jpg","stimuli/Kitchen & utensil.png","stimuli/Electronic device & accessory.png","stimuli/Hand labour tool & accessory.png","stimuli/Outdoor activity & sport item.png",NA,"Outdoor activity & sport item",4,1,"stimuli/objects/exercisebike.jpg",4,1,1.0224,1
24,NA,NA,NA,NA,NA,"stimuli/m_black.jpg","stimuli/Outdoor activity & sport item.png","stimuli/Electronic device & accessory.png","stimuli/Kitchen & utensil.png","stimuli/Hand labour tool & accessory.png",NA,"Outdoor activity & sport item",1,1,"stimuli/objects/backpack01a.jpg",1,1,1.2511,1
24,NA,NA,NA,NA,NA,"stimuli/m_orange.jpg","stimuli/Kitchen & utensil.png","stimuli/Hand labour tool & accessory.png","stimuli/Outdoor activity & sport item.png","stimuli/Electronic device & accessory.png",NA,"Hand labour tool & accessory",2,1,"stimuli/objects/nailgun.jpg",2,1,1.151,0
24,NA,NA,NA,NA,NA,"stimuli/m_orange.jpg","stimuli/Kitchen & utensil.png","stimuli/Outdoor activity & sport item.png","stimuli/Electronic device & accessory.png","stimuli/Hand labour tool & accessory.png",NA,"Kitchen & utensil",1,0,"stimuli/objects/icebucket.jpg",4,0,1.0652,0
24,NA,NA,NA,NA,NA,"stimuli/m_orange.jpg","stimuli/Outdoor activity & sport item.png","stimuli/Kitchen & utensil.png","stimuli/Electronic device & accessory.png","stimuli/Hand labour tool & accessory.png",NA,"Outdoor activity & sport item",1,0,"stimuli/objects/handgripper.jpg",2,0,0.5859,0
24,NA,NA,NA,NA,NA,"stimuli/m_orange.jpg","stimuli/Outdoor activity & sport item.png","stimuli/Electronic device & accessory.png","stimuli/Hand labour tool & accessory.png","stimuli/Kitchen & utensil.png",NA,"Hand labour tool & accessory",3,1,"stimuli/objects/gastank.jpg",4,0,1.028,0
24,NA,NA,NA,NA,NA,"stimuli/m_orange.jpg","stimuli/Kitchen & utensil.png","stimuli/Hand labour tool & accessory.png","stimuli/Electronic device & accessory.png","stimuli/Outdoor activity & sport item.png",NA,"Kitchen & utensil",1,0,"stimuli/objects/teapot.jpg",2,0,1.1345,0
24,NA,NA,NA,NA,NA,"stimuli/m_orange.jpg","stimuli/Hand labour tool & accessory.png","stimuli/Kitchen & utensil.png","stimuli/Electronic device & accessory.png","stimuli/Outdoor activity & sport item.png",NA,"Hand labour tool & accessory",1,1,"stimuli/objects/hoe.jpg",3,0,1.145,0
24,NA,NA,NA,NA,NA,"stimuli/m_orange.jpg","stimuli/Outdoor activity & sport item.png","stimuli/Hand labour tool & accessory.png","stimuli/Electronic device & accessory.png","stimuli/Kitchen & utensil.png",NA,"Hand labour tool & accessory",2,1,"stimuli/objects/squeegee01b.jpg",2,1,0.4673,0
