myownaccuracy,respcorrs,minNrPractice,considerNrTrials,Instr_resp.keys,Instr_resp.rt,key_resp_2.keys,key_resp_2.rt,instruction_loop.thisRepN,instruction_loop.thisTrialN,instruction_loop.thisN,instruction_loop.thisIndex,instruction_loop.ran,slides,participant,Expra Code,date,expName,psychopyVersion,OS,frameRate,taskGoresp.keys,taskGoresp.rt,pract_resp.keys,pract_resp.corr,pract_resp.rt,myownaccuracyCORR,pract_loop.thisRepN,pract_loop.thisTrialN,pract_loop.thisN,pract_loop.thisIndex,pract_loop.ran,character,left_categ,centleft_categ,centright_categ,right_categ,trial_cond,corr_ans,corr_ans_num,type,img,rep_resp.keys,rep_resp.rt,repeat_practice.thisRepN,repeat_practice.thisTrialN,repeat_practice.thisN,repeat_practice.thisIndex,repeat_practice.ran,task_response.keys,task_response.corr,task_response.rt,task_loop.thisRepN,task_loop.thisTrialN,task_loop.thisN,task_loop.thisIndex,task_loop.ran,condition
[],[],10,10,space,14.1006,space,5.0225,0,0,0,0,1,stimuli/slide1.png,15,308395,2021-12-28_10h24.35.734,MemLear_ses-01_part-01_label-phase1,2020.1.3,Win32,60,,,,,,,,,,,,,,,,,,,,,,,,,,,,,,,,,,,,,
,,,,,,space,34.4151,0,1,1,1,1,stimuli/slide2.png,15,308395,2021-12-28_10h24.35.734,MemLear_ses-01_part-01_label-phase1,2020.1.3,Win32,60,,,,,,,,,,,,,,,,,,,,,,,,,,,,,,,,,,,,,
,,,,,,space,16.4366,0,2,2,2,1,stimuli/slide3.png,15,308395,2021-12-28_10h24.35.734,MemLear_ses-01_part-01_label-phase1,2020.1.3,Win32,60,,,,,,,,,,,,,,,,,,,,,,,,,,,,,,,,,,,,,
,,,,,,space,11.435,0,3,3,3,1,stimuli/slide4.png,15,308395,2021-12-28_10h24.35.734,MemLear_ses-01_part-01_label-phase1,2020.1.3,Win32,60,,,,,,,,,,,,,,,,,,,,,,,,,,,,,,,,,,,,,
,,,,,,space,5.6504,0,4,4,4,1,stimuli/slide5.png,15,308395,2021-12-28_10h24.35.734,MemLear_ses-01_part-01_label-phase1,2020.1.3,Win32,60,,,,,,,,,,,,,,,,,,,,,,,,,,,,,,,,,,,,,
,,,,,,space,4.3185,0,5,5,5,1,stimuli/slide6.png,15,308395,2021-12-28_10h24.35.734,MemLear_ses-01_part-01_label-phase1,2020.1.3,Win32,60,,,,,,,,,,,,,,,,,,,,,,,,,,,,,,,,,,,,,
1,[],,,,,,,,,,,,,15,308395,2021-12-28_10h24.35.734,MemLear_ses-01_part-01_label-phase1,2020.1.3,Win32,60,space,14.6956,1,1,3.7218,1,0,0,0,0,1,stimuli/m_red.jpg,stimuli/Food.png,stimuli/Gamestoy & entertainment.png,stimuli/Vehicle.png,stimuli/Clothing.png,1,Food,1,1,stimuli/objects/chocolatecroissant.jpg,,,,,,,,,,,,,,,,
0,[1],,,,,,,,,,,,,15,308395,2021-12-28_10h24.35.734,MemLear_ses-01_part-01_label-phase1,2020.1.3,Win32,60,,,2,0,1.0683,1,0,1,1,1,1,stimuli/m_red.jpg,stimuli/Clothing.png,stimuli/Food.png,stimuli/Gamestoy & entertainment.png,stimuli/Vehicle.png,0,Vehicle,4,0,stimuli/objects/tricycle.jpg,,,,,,,,,,,,,,,,
1,[1],,,,,,,,,,,,,15,308395,2021-12-28_10h24.35.734,MemLear_ses-01_part-01_label-phase1,2020.1.3,Win32,60,,,4,1,2.935,1,0,2,2,2,1,stimuli/m_blue.jpg,stimuli/Vehicle.png,stimuli/Clothing.png,stimuli/Gamestoy & entertainment.png,stimuli/Food.png,0,Food,4,0,stimuli/objects/cracker02.jpg,,,,,,,,,,,,,,,,
1,[1],,,,,,,,,,,,,15,308395,2021-12-28_10h24.35.734,MemLear_ses-01_part-01_label-phase1,2020.1.3,Win32,60,,,4,1,1.9246,1,0,3,3,3,1,stimuli/m_red.jpg,stimuli/Clothing.png,stimuli/Vehicle.png,stimuli/Gamestoy & entertainment.png,stimuli/Food.png,1,Food,4,1,stimuli/objects/hotdog.jpg,,,,,,,,,,,,,,,,
1,"[1,1]",,,,,,,,,,,,,15,308395,2021-12-28_10h24.35.734,MemLear_ses-01_part-01_label-phase1,2020.1.3,Win32,60,,,3,1,2.0865,1,0,4,4,4,1,stimuli/m_red.jpg,stimuli/Clothing.png,stimuli/Gamestoy & entertainment.png,stimuli/Food.png,stimuli/Vehicle.png,1,Food,3,1,stimuli/objects/kiwi03.jpg,,,,,,,,,,,,,,,,
1,"[1,1,1]",,,,,,,,,,,,,15,308395,2021-12-28_10h24.35.734,MemLear_ses-01_part-01_label-phase1,2020.1.3,Win32,60,,,3,1,1.1432,1,0,5,5,5,1,stimuli/m_red.jpg,stimuli/Vehicle.png,stimuli/Gamestoy & entertainment.png,stimuli/Food.png,stimuli/Clothing.png,1,Food,3,1,stimuli/objects/greenolive.jpg,,,,,,,,,,,,,,,,
0,"[1,1,1,1]",,,,,,,,,,,,,15,308395,2021-12-28_10h24.35.734,MemLear_ses-01_part-01_label-phase1,2020.1.3,Win32,60,,,,0,,0,0,6,6,6,1,stimuli/m_blue.jpg,stimuli/Food.png,stimuli/Clothing.png,stimuli/Vehicle.png,stimuli/Gamestoy & entertainment.png,1,Gamestoy & entertainment,4,1,stimuli/objects/paperairplane.jpg,,,,,,,,,,,,,,,,
0,"[1,1,1,1,0]",,,,,,,,,,,,,15,308395,2021-12-28_10h24.35.734,MemLear_ses-01_part-01_label-phase1,2020.1.3,Win32,60,,,,0,,0,0,7,7,7,1,stimuli/m_blue.jpg,stimuli/Vehicle.png,stimuli/Gamestoy & entertainment.png,stimuli/Food.png,stimuli/Clothing.png,1,Gamestoy & entertainment,2,1,stimuli/objects/toyanimal02.jpg,,,,,,,,,,,,,,,,
1,"[1,1,1,1,0,0]",,,,,,,,,,,,,15,308395,2021-12-28_10h24.35.734,MemLear_ses-01_part-01_label-phase1,2020.1.3,Win32,60,,,4,1,0.7254,1,0,8,8,8,1,stimuli/m_red.jpg,stimuli/Vehicle.png,stimuli/Clothing.png,stimuli/Gamestoy & entertainment.png,stimuli/Food.png,1,Food,4,1,stimuli/objects/casabamelon.jpg,,,,,,,,,,,,,,,,
1,"[1,1,1,1,0,0,1]",,,,,,,,,,,,,15,308395,2021-12-28_10h24.35.734,MemLear_ses-01_part-01_label-phase1,2020.1.3,Win32,60,,,1,1,1.583,1,0,9,9,9,1,stimuli/m_blue.jpg,stimuli/Gamestoy & entertainment.png,stimuli/Clothing.png,stimuli/Vehicle.png,stimuli/Food.png,1,Gamestoy & entertainment,1,1,stimuli/objects/paddleball.jpg,,,,,,,,,,,,,,,,
1,"[1,1,1,1,0,0,1,1]",,,,,,,,,,,,,15,308395,2021-12-28_10h24.35.734,MemLear_ses-01_part-01_label-phase1,2020.1.3,Win32,60,,,1,1,2.0982,1,0,10,10,10,1,stimuli/m_blue.jpg,stimuli/Gamestoy & entertainment.png,stimuli/Clothing.png,stimuli/Food.png,stimuli/Vehicle.png,1,Gamestoy & entertainment,1,1,stimuli/objects/rockinghorse.jpg,,,,,,,,,,,,,,,,
1,"[1,1,1,1,0,0,1,1,1]",,,,,,,,,,,,,15,308395,2021-12-28_10h24.35.734,MemLear_ses-01_part-01_label-phase1,2020.1.3,Win32,60,,,2,1,0.7555,1,0,11,11,11,1,stimuli/m_red.jpg,stimuli/Vehicle.png,stimuli/Food.png,stimuli/Clothing.png,stimuli/Gamestoy & entertainment.png,1,Food,2,1,stimuli/objects/arugula.jpg,,,,,,,,,,,,,,,,
,,,,,,,,,,,,,,15,308395,2021-12-28_10h24.35.734,MemLear_ses-01_part-01_label-phase1,2020.1.3,Win32,60,,,,,,,,,,,,,,,,,,,,,,n,220.1019,0,0,0,0,1,,,,,,,,,
,,,,,,,,,,,,,,15,308395,2021-12-28_10h24.35.734,MemLear_ses-01_part-01_label-phase1,2020.1.3,Win32,60,,,,,,,,,,,,stimuli/m_orange.jpg,stimuli/Kitchen & utensil.png,stimuli/Outdoor activity & sport item.png,stimuli/Hand labour tool & accessory.png,stimuli/Electronic device & accessory.png,,Electronic device & accessory,4,1,stimuli/objects/spotlight.jpg,,,,,,,,4,1,1.4225,0,0,0,0,1,1
,,,,,,,,,,,,,,15,308395,2021-12-28_10h24.35.734,MemLear_ses-01_part-01_label-phase1,2020.1.3,Win32,60,,,,,,,,,,,,stimuli/m_black.jpg,stimuli/Kitchen & utensil.png,stimuli/Outdoor activity & sport item.png,stimuli/Electronic device & accessory.png,stimuli/Hand labour tool & accessory.png,,Kitchen & utensil,1,1,stimuli/objects/peppermill02b.jpg,,,,,,,,2,0,0.7034,0,1,1,1,1,0
,,,,,,,,,,,,,,15,308395,2021-12-28_10h24.35.734,MemLear_ses-01_part-01_label-phase1,2020.1.3,Win32,60,,,,,,,,,,,,stimuli/m_black.jpg,stimuli/Hand labour tool & accessory.png,stimuli/Electronic device & accessory.png,stimuli/Outdoor activity & sport item.png,stimuli/Kitchen & utensil.png,,Kitchen & utensil,4,1,stimuli/objects/canister.jpg,,,,,,,,3,0,1.3786,0,2,2,2,1,0
,,,,,,,,,,,,,,15,308395,2021-12-28_10h24.35.734,MemLear_ses-01_part-01_label-phase1,2020.1.3,Win32,60,,,,,,,,,,,,stimuli/m_orange.jpg,stimuli/Electronic device & accessory.png,stimuli/Outdoor activity & sport item.png,stimuli/Kitchen & utensil.png,stimuli/Hand labour tool & accessory.png,,Kitchen & utensil,3,0,stimuli/objects/fryingpan02a.jpg,,,,,,,,1,0,2.0304,0,3,3,3,1,1
,,,,,,,,,,,,,,15,308395,2021-12-28_10h24.35.734,MemLear_ses-01_part-01_label-phase1,2020.1.3,Win32,60,,,,,,,,,,,,stimuli/m_black.jpg,stimuli/Kitchen & utensil.png,stimuli/Electronic device & accessory.png,stimuli/Hand labour tool & accessory.png,stimuli/Outdoor activity & sport item.png,,Kitchen & utensil,1,1,stimuli/objects/muffintray01.jpg,,,,,,,,4,0,2.1735,0,4,4,4,1,0
,,,,,,,,,,,,,,15,308395,2021-12-28_10h24.35.734,MemLear_ses-01_part-01_label-phase1,2020.1.3,Win32,60,,,,,,,,,,,,stimuli/m_orange.jpg,stimuli/Hand labour tool & accessory.png,stimuli/Outdoor activity & sport item.png,stimuli/Kitchen & utensil.png,stimuli/Electronic device & accessory.png,,Kitchen & utensil,3,0,stimuli/objects/bowl02a.jpg,,,,,,,,4,0,2.0638,0,5,5,5,1,1
,,,,,,,,,,,,,,15,308395,2021-12-28_10h24.35.734,MemLear_ses-01_part-01_label-phase1,2020.1.3,Win32,60,,,,,,,,,,,,stimuli/m_black.jpg,stimuli/Kitchen & utensil.png,stimuli/Electronic device & accessory.png,stimuli/Outdoor activity & sport item.png,stimuli/Hand labour tool & accessory.png,,Kitchen & utensil,1,1,stimuli/objects/cowbell.jpg,,,,,,,,2,0,2.342,0,6,6,6,1,0
,,,,,,,,,,,,,,15,308395,2021-12-28_10h24.35.734,MemLear_ses-01_part-01_label-phase1,2020.1.3,Win32,60,,,,,,,,,,,,stimuli/m_orange.jpg,stimuli/Hand labour tool & accessory.png,stimuli/Kitchen & utensil.png,stimuli/Outdoor activity & sport item.png,stimuli/Electronic device & accessory.png,,Electronic device & accessory,4,1,stimuli/objects/usbkey.jpg,,,,,,,,3,0,2.7154,0,7,7,7,1,1
,,,,,,,,,,,,,,15,308395,2021-12-28_10h24.35.734,MemLear_ses-01_part-01_label-phase1,2020.1.3,Win32,60,,,,,,,,,,,,stimuli/m_black.jpg,stimuli/Outdoor activity & sport item.png,stimuli/Kitchen & utensil.png,stimuli/Hand labour tool & accessory.png,stimuli/Electronic device & accessory.png,,Outdoor activity & sport item,1,0,stimuli/objects/toyhockeystick01.jpg,,,,,,,,1,1,3.0325,0,8,8,8,1,0
,,,,,,,,,,,,,,15,308395,2021-12-28_10h24.35.734,MemLear_ses-01_part-01_label-phase1,2020.1.3,Win32,60,,,,,,,,,,,,stimuli/m_orange.jpg,stimuli/Hand labour tool & accessory.png,stimuli/Electronic device & accessory.png,stimuli/Outdoor activity & sport item.png,stimuli/Kitchen & utensil.png,,Hand labour tool & accessory,1,0,stimuli/objects/tablesaw.jpg,,,,,,,,1,1,1.6406,0,9,9,9,1,1
,,,,,,,,,,,,,,15,308395,2021-12-28_10h24.35.734,MemLear_ses-01_part-01_label-phase1,2020.1.3,Win32,60,,,,,,,,,,,,stimuli/m_black.jpg,stimuli/Kitchen & utensil.png,stimuli/Hand labour tool & accessory.png,stimuli/Outdoor activity & sport item.png,stimuli/Electronic device & accessory.png,,Kitchen & utensil,1,1,stimuli/objects/kitchenscale01a.jpg,,,,,,,,4,0,1.9014,0,10,10,10,1,0
,,,,,,,,,,,,,,15,308395,2021-12-28_10h24.35.734,MemLear_ses-01_part-01_label-phase1,2020.1.3,Win32,60,,,,,,,,,,,,stimuli/m_orange.jpg,stimuli/Outdoor activity & sport item.png,stimuli/Kitchen & utensil.png,stimuli/Hand labour tool & accessory.png,stimuli/Electronic device & accessory.png,,Electronic device & accessory,4,1,stimuli/objects/securitycamera.jpg,,,,,,,,4,1,3.503,0,11,11,11,1,1
,,,,,,,,,,,,,,15,308395,2021-12-28_10h24.35.734,MemLear_ses-01_part-01_label-phase1,2020.1.3,Win32,60,,,,,,,,,,,,stimuli/m_orange.jpg,stimuli/Kitchen & utensil.png,stimuli/Electronic device & accessory.png,stimuli/Outdoor activity & sport item.png,stimuli/Hand labour tool & accessory.png,,Electronic device & accessory,2,1,stimuli/objects/photocopier.jpg,,,,,,,,2,1,1.6022,0,12,12,12,1,1
,,,,,,,,,,,,,,15,308395,2021-12-28_10h24.35.734,MemLear_ses-01_part-01_label-phase1,2020.1.3,Win32,60,,,,,,,,,,,,stimuli/m_orange.jpg,stimuli/Outdoor activity & sport item.png,stimuli/Hand labour tool & accessory.png,stimuli/Kitchen & utensil.png,stimuli/Electronic device & accessory.png,,Electronic device & accessory,4,1,stimuli/objects/phonejack.jpg,,,,,,,,4,1,1.8524,0,13,13,13,1,1
,,,,,,,,,,,,,,15,308395,2021-12-28_10h24.35.734,MemLear_ses-01_part-01_label-phase1,2020.1.3,Win32,60,,,,,,,,,,,,stimuli/m_orange.jpg,stimuli/Hand labour tool & accessory.png,stimuli/Electronic device & accessory.png,stimuli/Kitchen & utensil.png,stimuli/Outdoor activity & sport item.png,,Hand labour tool & accessory,1,0,stimuli/objects/swissarmyknife01a.jpg,,,,,,,,2,0,0.9163,0,14,14,14,1,1
,,,,,,,,,,,,,,15,308395,2021-12-28_10h24.35.734,MemLear_ses-01_part-01_label-phase1,2020.1.3,Win32,60,,,,,,,,,,,,stimuli/m_orange.jpg,stimuli/Outdoor activity & sport item.png,stimuli/Kitchen & utensil.png,stimuli/Hand labour tool & accessory.png,stimuli/Electronic device & accessory.png,,Electronic device & accessory,4,1,stimuli/objects/lamp04a.jpg,,,,,,,,4,1,2.588,0,15,15,15,1,1
,,,,,,,,,,,,,,15,308395,2021-12-28_10h24.35.734,MemLear_ses-01_part-01_label-phase1,2020.1.3,Win32,60,,,,,,,,,,,,stimuli/m_black.jpg,stimuli/Hand labour tool & accessory.png,stimuli/Kitchen & utensil.png,stimuli/Outdoor activity & sport item.png,stimuli/Electronic device & accessory.png,,Kitchen & utensil,2,1,stimuli/objects/pastaspoon.jpg,,,,,,,,3,0,1.1482,0,16,16,16,1,0
,,,,,,,,,,,,,,15,308395,2021-12-28_10h24.35.734,MemLear_ses-01_part-01_label-phase1,2020.1.3,Win32,60,,,,,,,,,,,,stimuli/m_black.jpg,stimuli/Electronic device & accessory.png,stimuli/Outdoor activity & sport item.png,stimuli/Hand labour tool & accessory.png,stimuli/Kitchen & utensil.png,,Kitchen & utensil,4,1,stimuli/objects/fonduefork01.jpg,,,,,,,,4,1,1.7333,0,17,17,17,1,0
,,,,,,,,,,,,,,15,308395,2021-12-28_10h24.35.734,MemLear_ses-01_part-01_label-phase1,2020.1.3,Win32,60,,,,,,,,,,,,stimuli/m_black.jpg,stimuli/Outdoor activity & sport item.png,stimuli/Kitchen & utensil.png,stimuli/Hand labour tool & accessory.png,stimuli/Electronic device & accessory.png,,Kitchen & utensil,2,1,stimuli/objects/dishrack.jpg,,,,,,,,2,1,1.1184,0,18,18,18,1,0
,,,,,,,,,,,,,,15,308395,2021-12-28_10h24.35.734,MemLear_ses-01_part-01_label-phase1,2020.1.3,Win32,60,,,,,,,,,,,,stimuli/m_orange.jpg,stimuli/Kitchen & utensil.png,stimuli/Electronic device & accessory.png,stimuli/Outdoor activity & sport item.png,stimuli/Hand labour tool & accessory.png,,Electronic device & accessory,2,1,stimuli/objects/expansioncard.jpg,,,,,,,,2,1,2.5496,0,19,19,19,1,1
,,,,,,,,,,,,,,15,308395,2021-12-28_10h24.35.734,MemLear_ses-01_part-01_label-phase1,2020.1.3,Win32,60,,,,,,,,,,,,stimuli/m_black.jpg,stimuli/Electronic device & accessory.png,stimuli/Hand labour tool & accessory.png,stimuli/Outdoor activity & sport item.png,stimuli/Kitchen & utensil.png,,Kitchen & utensil,4,1,stimuli/objects/tupperware03a.jpg,,,,,,,,3,0,1.7511,0,20,20,20,1,0
,,,,,,,,,,,,,,15,308395,2021-12-28_10h24.35.734,MemLear_ses-01_part-01_label-phase1,2020.1.3,Win32,60,,,,,,,,,,,,stimuli/m_orange.jpg,stimuli/Electronic device & accessory.png,stimuli/Hand labour tool & accessory.png,stimuli/Outdoor activity & sport item.png,stimuli/Kitchen & utensil.png,,Outdoor activity & sport item,3,0,stimuli/objects/surfboard.jpg,,,,,,,,1,0,1.8248,0,21,21,21,1,1
,,,,,,,,,,,,,,15,308395,2021-12-28_10h24.35.734,MemLear_ses-01_part-01_label-phase1,2020.1.3,Win32,60,,,,,,,,,,,,stimuli/m_orange.jpg,stimuli/Kitchen & utensil.png,stimuli/Hand labour tool & accessory.png,stimuli/Outdoor activity & sport item.png,stimuli/Electronic device & accessory.png,,Electronic device & accessory,4,1,stimuli/objects/electricoutlet.jpg,,,,,,,,3,0,1.4303,0,22,22,22,1,1
,,,,,,,,,,,,,,15,308395,2021-12-28_10h24.35.734,MemLear_ses-01_part-01_label-phase1,2020.1.3,Win32,60,,,,,,,,,,,,stimuli/m_black.jpg,stimuli/Electronic device & accessory.png,stimuli/Hand labour tool & accessory.png,stimuli/Kitchen & utensil.png,stimuli/Outdoor activity & sport item.png,,Kitchen & utensil,3,1,stimuli/objects/beermug01a.jpg,,,,,,,,1,0,1.5732,0,23,23,23,1,0
,,,,,,,,,,,,,,15,308395,2021-12-28_10h24.35.734,MemLear_ses-01_part-01_label-phase1,2020.1.3,Win32,60,,,,,,,,,,,,stimuli/m_orange.jpg,stimuli/Kitchen & utensil.png,stimuli/Hand labour tool & accessory.png,stimuli/Outdoor activity & sport item.png,stimuli/Electronic device & accessory.png,,Electronic device & accessory,4,1,stimuli/objects/scanner.jpg,,,,,,,,3,0,2.7452,0,24,24,24,1,1
,,,,,,,,,,,,,,15,308395,2021-12-28_10h24.35.734,MemLear_ses-01_part-01_label-phase1,2020.1.3,Win32,60,,,,,,,,,,,,stimuli/m_black.jpg,stimuli/Electronic device & accessory.png,stimuli/Hand labour tool & accessory.png,stimuli/Kitchen & utensil.png,stimuli/Outdoor activity & sport item.png,,Electronic device & accessory,1,0,stimuli/objects/filmnegative.jpg,,,,,,,,3,0,1.6342,0,25,25,25,1,0
,,,,,,,,,,,,,,15,308395,2021-12-28_10h24.35.734,MemLear_ses-01_part-01_label-phase1,2020.1.3,Win32,60,,,,,,,,,,,,stimuli/m_black.jpg,stimuli/Hand labour tool & accessory.png,stimuli/Electronic device & accessory.png,stimuli/Kitchen & utensil.png,stimuli/Outdoor activity & sport item.png,,Kitchen & utensil,3,1,stimuli/objects/cleaver01.jpg,,,,,,,,4,0,1.4112,0,26,26,26,1,0
,,,,,,,,,,,,,,15,308395,2021-12-28_10h24.35.734,MemLear_ses-01_part-01_label-phase1,2020.1.3,Win32,60,,,,,,,,,,,,stimuli/m_orange.jpg,stimuli/Electronic device & accessory.png,stimuli/Kitchen & utensil.png,stimuli/Hand labour tool & accessory.png,stimuli/Outdoor activity & sport item.png,,Electronic device & accessory,1,1,stimuli/objects/jack.jpg,,,,,,,,1,1,1.8324,0,27,27,27,1,1
,,,,,,,,,,,,,,15,308395,2021-12-28_10h24.35.734,MemLear_ses-01_part-01_label-phase1,2020.1.3,Win32,60,,,,,,,,,,,,stimuli/m_orange.jpg,stimuli/Kitchen & utensil.png,stimuli/Electronic device & accessory.png,stimuli/Hand labour tool & accessory.png,stimuli/Outdoor activity & sport item.png,,Electronic device & accessory,2,1,stimuli/objects/fanheater.jpg,,,,,,,,1,0,1.5217,0,28,28,28,1,1
,,,,,,,,,,,,,,15,308395,2021-12-28_10h24.35.734,MemLear_ses-01_part-01_label-phase1,2020.1.3,Win32,60,,,,,,,,,,,,stimuli/m_black.jpg,stimuli/Outdoor activity & sport item.png,stimuli/Hand labour tool & accessory.png,stimuli/Electronic device & accessory.png,stimuli/Kitchen & utensil.png,,Outdoor activity & sport item,1,0,stimuli/objects/umbrella04.jpg,,,,,,,,1,1,3.1681,0,29,29,29,1,0
,,,,,,,,,,,,,,15,308395,2021-12-28_10h24.35.734,MemLear_ses-01_part-01_label-phase1,2020.1.3,Win32,60,,,,,,,,,,,,stimuli/m_black.jpg,stimuli/Kitchen & utensil.png,stimuli/Outdoor activity & sport item.png,stimuli/Electronic device & accessory.png,stimuli/Hand labour tool & accessory.png,,Kitchen & utensil,1,1,stimuli/objects/spicerack.jpg,,,,,,,,2,0,1.0303,0,30,30,30,1,0
,,,,,,,,,,,,,,15,308395,2021-12-28_10h24.35.734,MemLear_ses-01_part-01_label-phase1,2020.1.3,Win32,60,,,,,,,,,,,,stimuli/m_orange.jpg,stimuli/Kitchen & utensil.png,stimuli/Electronic device & accessory.png,stimuli/Hand labour tool & accessory.png,stimuli/Outdoor activity & sport item.png,,Electronic device & accessory,2,1,stimuli/objects/crocodileclips.jpg,,,,,,,,4,0,1.7749,0,31,31,31,1,1
,,,,,,,,,,,,,,15,308395,2021-12-28_10h24.35.734,MemLear_ses-01_part-01_label-phase1,2020.1.3,Win32,60,,,,,,,,,,,,stimuli/m_orange.jpg,stimuli/Electronic device & accessory.png,stimuli/Hand labour tool & accessory.png,stimuli/Kitchen & utensil.png,stimuli/Outdoor activity & sport item.png,,Kitchen & utensil,3,0,stimuli/objects/minifridge.jpg,,,,,,,,1,0,0.6892,0,32,32,32,1,1
,,,,,,,,,,,,,,15,308395,2021-12-28_10h24.35.734,MemLear_ses-01_part-01_label-phase1,2020.1.3,Win32,60,,,,,,,,,,,,stimuli/m_orange.jpg,stimuli/Outdoor activity & sport item.png,stimuli/Electronic device & accessory.png,stimuli/Kitchen & utensil.png,stimuli/Hand labour tool & accessory.png,,Electronic device & accessory,2,1,stimuli/objects/heatpump.jpg,,,,,,,,3,0,1.1488,0,33,33,33,1,1
,,,,,,,,,,,,,,15,308395,2021-12-28_10h24.35.734,MemLear_ses-01_part-01_label-phase1,2020.1.3,Win32,60,,,,,,,,,,,,stimuli/m_black.jpg,stimuli/Hand labour tool & accessory.png,stimuli/Kitchen & utensil.png,stimuli/Outdoor activity & sport item.png,stimuli/Electronic device & accessory.png,,Kitchen & utensil,2,1,stimuli/objects/funnel.jpg,,,,,,,,2,1,1.4215,0,34,34,34,1,0
,,,,,,,,,,,,,,15,308395,2021-12-28_10h24.35.734,MemLear_ses-01_part-01_label-phase1,2020.1.3,Win32,60,,,,,,,,,,,,stimuli/m_orange.jpg,stimuli/Outdoor activity & sport item.png,stimuli/Kitchen & utensil.png,stimuli/Electronic device & accessory.png,stimuli/Hand labour tool & accessory.png,,Electronic device & accessory,3,1,stimuli/objects/lightswitch01.jpg,,,,,,,,3,1,3.6907,0,35,35,35,1,1
,,,,,,,,,,,,,,15,308395,2021-12-28_10h24.35.734,MemLear_ses-01_part-01_label-phase1,2020.1.3,Win32,60,,,,,,,,,,,,stimuli/m_orange.jpg,stimuli/Outdoor activity & sport item.png,stimuli/Kitchen & utensil.png,stimuli/Hand labour tool & accessory.png,stimuli/Electronic device & accessory.png,,Outdoor activity & sport item,1,0,stimuli/objects/snowshoe.jpg,,,,,,,,4,0,3.1223,0,36,36,36,1,1
,,,,,,,,,,,,,,15,308395,2021-12-28_10h24.35.734,MemLear_ses-01_part-01_label-phase1,2020.1.3,Win32,60,,,,,,,,,,,,stimuli/m_black.jpg,stimuli/Outdoor activity & sport item.png,stimuli/Kitchen & utensil.png,stimuli/Electronic device & accessory.png,stimuli/Hand labour tool & accessory.png,,Kitchen & utensil,2,1,stimuli/objects/shotglass.jpg,,,,,,,,1,0,2.4441,0,37,37,37,1,0
,,,,,,,,,,,,,,15,308395,2021-12-28_10h24.35.734,MemLear_ses-01_part-01_label-phase1,2020.1.3,Win32,60,,,,,,,,,,,,stimuli/m_orange.jpg,stimuli/Electronic device & accessory.png,stimuli/Hand labour tool & accessory.png,stimuli/Kitchen & utensil.png,stimuli/Outdoor activity & sport item.png,,Kitchen & utensil,3,0,stimuli/objects/cookingpot.jpg,,,,,,,,3,1,1.8842,0,38,38,38,1,1
,,,,,,,,,,,,,,15,308395,2021-12-28_10h24.35.734,MemLear_ses-01_part-01_label-phase1,2020.1.3,Win32,60,,,,,,,,,,,,stimuli/m_black.jpg,stimuli/Hand labour tool & accessory.png,stimuli/Outdoor activity & sport item.png,stimuli/Kitchen & utensil.png,stimuli/Electronic device & accessory.png,,Kitchen & utensil,3,1,stimuli/objects/pitcher02b.jpg,,,,,,,,3,1,0.7214,0,39,39,39,1,0
,,,,,,,,,,,,,,15,308395,2021-12-28_10h24.35.734,MemLear_ses-01_part-01_label-phase1,2020.1.3,Win32,60,,,,,,,,,,,,stimuli/m_black.jpg,stimuli/Electronic device & accessory.png,stimuli/Outdoor activity & sport item.png,stimuli/Kitchen & utensil.png,stimuli/Hand labour tool & accessory.png,,Electronic device & accessory,1,0,stimuli/objects/wiicontroller.jpg,,,,,,,,3,0,1.0519,0,40,40,40,1,0
,,,,,,,,,,,,,,15,308395,2021-12-28_10h24.35.734,MemLear_ses-01_part-01_label-phase1,2020.1.3,Win32,60,,,,,,,,,,,,stimuli/m_black.jpg,stimuli/Hand labour tool & accessory.png,stimuli/Electronic device & accessory.png,stimuli/Outdoor activity & sport item.png,stimuli/Kitchen & utensil.png,,Hand labour tool & accessory,1,0,stimuli/objects/knifesharpener.jpg,,,,,,,,2,0,1.158,0,41,41,41,1,0
,,,,,,,,,,,,,,15,308395,2021-12-28_10h24.35.734,MemLear_ses-01_part-01_label-phase1,2020.1.3,Win32,60,,,,,,,,,,,,stimuli/m_black.jpg,stimuli/Electronic device & accessory.png,stimuli/Outdoor activity & sport item.png,stimuli/Kitchen & utensil.png,stimuli/Hand labour tool & accessory.png,,Kitchen & utensil,3,1,stimuli/objects/peeler01.jpg,,,,,,,,2,0,0.9916,0,42,42,42,1,0
,,,,,,,,,,,,,,15,308395,2021-12-28_10h24.35.734,MemLear_ses-01_part-01_label-phase1,2020.1.3,Win32,60,,,,,,,,,,,,stimuli/m_black.jpg,stimuli/Electronic device & accessory.png,stimuli/Kitchen & utensil.png,stimuli/Hand labour tool & accessory.png,stimuli/Outdoor activity & sport item.png,,Kitchen & utensil,2,1,stimuli/objects/pot01.jpg,,,,,,,,2,1,1.2647,0,43,43,43,1,0
,,,,,,,,,,,,,,15,308395,2021-12-28_10h24.35.734,MemLear_ses-01_part-01_label-phase1,2020.1.3,Win32,60,,,,,,,,,,,,stimuli/m_black.jpg,stimuli/Electronic device & accessory.png,stimuli/Kitchen & utensil.png,stimuli/Outdoor activity & sport item.png,stimuli/Hand labour tool & accessory.png,,Kitchen & utensil,2,1,stimuli/objects/coffeemaker.jpg,,,,,,,,1,0,3.5662,0,44,44,44,1,0
,,,,,,,,,,,,,,15,308395,2021-12-28_10h24.35.734,MemLear_ses-01_part-01_label-phase1,2020.1.3,Win32,60,,,,,,,,,,,,stimuli/m_black.jpg,stimuli/Kitchen & utensil.png,stimuli/Electronic device & accessory.png,stimuli/Outdoor activity & sport item.png,stimuli/Hand labour tool & accessory.png,,Kitchen & utensil,1,1,stimuli/objects/spatula04.jpg,,,,,,,,1,1,1.4362,0,45,45,45,1,0
,,,,,,,,,,,,,,15,308395,2021-12-28_10h24.35.734,MemLear_ses-01_part-01_label-phase1,2020.1.3,Win32,60,,,,,,,,,,,,stimuli/m_orange.jpg,stimuli/Outdoor activity & sport item.png,stimuli/Electronic device & accessory.png,stimuli/Kitchen & utensil.png,stimuli/Hand labour tool & accessory.png,,Electronic device & accessory,2,1,stimuli/objects/lightbulb01.jpg,,,,,,,,3,0,1.3558,0,46,46,46,1,1
,,,,,,,,,,,,,,15,308395,2021-12-28_10h24.35.734,MemLear_ses-01_part-01_label-phase1,2020.1.3,Win32,60,,,,,,,,,,,,stimuli/m_black.jpg,stimuli/Electronic device & accessory.png,stimuli/Kitchen & utensil.png,stimuli/Hand labour tool & accessory.png,stimuli/Outdoor activity & sport item.png,,Kitchen & utensil,2,1,stimuli/objects/cakeplatter.jpg,,,,,,,,,0,,0,47,47,47,1,0
,,,,,,,,,,,,,,15,308395,2021-12-28_10h24.35.734,MemLear_ses-01_part-01_label-phase1,2020.1.3,Win32,60,,,,,,,,,,,,stimuli/m_orange.jpg,stimuli/Kitchen & utensil.png,stimuli/Electronic device & accessory.png,stimuli/Hand labour tool & accessory.png,stimuli/Outdoor activity & sport item.png,,Electronic device & accessory,2,1,stimuli/objects/alarmsystem.jpg,,,,,,,,3,0,1.3021,0,48,48,48,1,1
,,,,,,,,,,,,,,15,308395,2021-12-28_10h24.35.734,MemLear_ses-01_part-01_label-phase1,2020.1.3,Win32,60,,,,,,,,,,,,stimuli/m_orange.jpg,stimuli/Outdoor activity & sport item.png,stimuli/Electronic device & accessory.png,stimuli/Hand labour tool & accessory.png,stimuli/Kitchen & utensil.png,,Hand labour tool & accessory,3,0,stimuli/objects/boltcutter.jpg,,,,,,,,2,0,1.3197,0,49,49,49,1,1
,,,,,,,,,,,,,,15,308395,2021-12-28_10h24.35.734,MemLear_ses-01_part-01_label-phase1,2020.1.3,Win32,60,,,,,,,,,,,,stimuli/m_black.jpg,stimuli/Electronic device & accessory.png,stimuli/Hand labour tool & accessory.png,stimuli/Kitchen & utensil.png,stimuli/Outdoor activity & sport item.png,,Electronic device & accessory,1,0,stimuli/objects/audiocablesplitter.jpg,,,,,,,,1,1,0.9355,0,50,50,50,1,0
,,,,,,,,,,,,,,15,308395,2021-12-28_10h24.35.734,MemLear_ses-01_part-01_label-phase1,2020.1.3,Win32,60,,,,,,,,,,,,stimuli/m_orange.jpg,stimuli/Kitchen & utensil.png,stimuli/Outdoor activity & sport item.png,stimuli/Electronic device & accessory.png,stimuli/Hand labour tool & accessory.png,,Electronic device & accessory,3,1,stimuli/objects/ipod.jpg,,,,,,,,1,0,2.7738,0,51,51,51,1,1
,,,,,,,,,,,,,,15,308395,2021-12-28_10h24.35.734,MemLear_ses-01_part-01_label-phase1,2020.1.3,Win32,60,,,,,,,,,,,,stimuli/m_orange.jpg,stimuli/Outdoor activity & sport item.png,stimuli/Electronic device & accessory.png,stimuli/Hand labour tool & accessory.png,stimuli/Kitchen & utensil.png,,Electronic device & accessory,2,1,stimuli/objects/radio01.jpg,,,,,,,,2,1,1.6467,0,52,52,52,1,1
,,,,,,,,,,,,,,15,308395,2021-12-28_10h24.35.734,MemLear_ses-01_part-01_label-phase1,2020.1.3,Win32,60,,,,,,,,,,,,stimuli/m_orange.jpg,stimuli/Electronic device & accessory.png,stimuli/Outdoor activity & sport item.png,stimuli/Hand labour tool & accessory.png,stimuli/Kitchen & utensil.png,,Electronic device & accessory,1,1,stimuli/objects/telephone01b.jpg,,,,,,,,2,0,0.7514,0,53,53,53,1,1
,,,,,,,,,,,,,,15,308395,2021-12-28_10h24.35.734,MemLear_ses-01_part-01_label-phase1,2020.1.3,Win32,60,,,,,,,,,,,,stimuli/m_black.jpg,stimuli/Kitchen & utensil.png,stimuli/Outdoor activity & sport item.png,stimuli/Hand labour tool & accessory.png,stimuli/Electronic device & accessory.png,,Kitchen & utensil,1,1,stimuli/objects/knife03.jpg,,,,,,,,1,1,1.3526,0,54,54,54,1,0
,,,,,,,,,,,,,,15,308395,2021-12-28_10h24.35.734,MemLear_ses-01_part-01_label-phase1,2020.1.3,Win32,60,,,,,,,,,,,,stimuli/m_black.jpg,stimuli/Kitchen & utensil.png,stimuli/Electronic device & accessory.png,stimuli/Hand labour tool & accessory.png,stimuli/Outdoor activity & sport item.png,,Kitchen & utensil,1,1,stimuli/objects/spatula03.jpg,,,,,,,,1,1,0.5868,0,55,55,55,1,0
,,,,,,,,,,,,,,15,308395,2021-12-28_10h24.35.734,MemLear_ses-01_part-01_label-phase1,2020.1.3,Win32,60,,,,,,,,,,,,stimuli/m_orange.jpg,stimuli/Kitchen & utensil.png,stimuli/Hand labour tool & accessory.png,stimuli/Outdoor activity & sport item.png,stimuli/Electronic device & accessory.png,,Electronic device & accessory,4,1,stimuli/objects/nintendods.jpg,,,,,,,,1,0,1.3302,0,56,56,56,1,1
,,,,,,,,,,,,,,15,308395,2021-12-28_10h24.35.734,MemLear_ses-01_part-01_label-phase1,2020.1.3,Win32,60,,,,,,,,,,,,stimuli/m_black.jpg,stimuli/Hand labour tool & accessory.png,stimuli/Kitchen & utensil.png,stimuli/Electronic device & accessory.png,stimuli/Outdoor activity & sport item.png,,Electronic device & accessory,3,0,stimuli/objects/avcable.jpg,,,,,,,,2,0,2.6817,0,57,57,57,1,0
,,,,,,,,,,,,,,15,308395,2021-12-28_10h24.35.734,MemLear_ses-01_part-01_label-phase1,2020.1.3,Win32,60,,,,,,,,,,,,stimuli/m_black.jpg,stimuli/Electronic device & accessory.png,stimuli/Hand labour tool & accessory.png,stimuli/Outdoor activity & sport item.png,stimuli/Kitchen & utensil.png,,Kitchen & utensil,4,1,stimuli/objects/chocolatefonduedish.jpg,,,,,,,,1,0,1.3553,0,58,58,58,1,0
,,,,,,,,,,,,,,15,308395,2021-12-28_10h24.35.734,MemLear_ses-01_part-01_label-phase1,2020.1.3,Win32,60,,,,,,,,,,,,stimuli/m_orange.jpg,stimuli/Electronic device & accessory.png,stimuli/Kitchen & utensil.png,stimuli/Outdoor activity & sport item.png,stimuli/Hand labour tool & accessory.png,,Electronic device & accessory,1,1,stimuli/objects/walkietalkie.jpg,,,,,,,,3,0,1.3263,0,59,59,59,1,1
,,,,,,,,,,,,,,15,308395,2021-12-28_10h24.35.734,MemLear_ses-01_part-01_label-phase1,2020.1.3,Win32,60,,,,,,,,,,,,stimuli/m_orange.jpg,stimuli/Outdoor activity & sport item.png,stimuli/Hand labour tool & accessory.png,stimuli/Electronic device & accessory.png,stimuli/Kitchen & utensil.png,,Electronic device & accessory,3,1,stimuli/objects/djmixer02.jpg,,,,,,,,3,1,0.9498,0,60,60,60,1,1
,,,,,,,,,,,,,,15,308395,2021-12-28_10h24.35.734,MemLear_ses-01_part-01_label-phase1,2020.1.3,Win32,60,,,,,,,,,,,,stimuli/m_black.jpg,stimuli/Kitchen & utensil.png,stimuli/Hand labour tool & accessory.png,stimuli/Outdoor activity & sport item.png,stimuli/Electronic device & accessory.png,,Kitchen & utensil,1,1,stimuli/objects/grill.jpg,,,,,,,,4,0,1.7089,0,61,61,61,1,0
,,,,,,,,,,,,,,15,308395,2021-12-28_10h24.35.734,MemLear_ses-01_part-01_label-phase1,2020.1.3,Win32,60,,,,,,,,,,,,stimuli/m_orange.jpg,stimuli/Electronic device & accessory.png,stimuli/Hand labour tool & accessory.png,stimuli/Kitchen & utensil.png,stimuli/Outdoor activity & sport item.png,,Electronic device & accessory,1,1,stimuli/objects/battery02b.jpg,,,,,,,,1,1,0.7468,0,62,62,62,1,1
,,,,,,,,,,,,,,15,308395,2021-12-28_10h24.35.734,MemLear_ses-01_part-01_label-phase1,2020.1.3,Win32,60,,,,,,,,,,,,stimuli/m_orange.jpg,stimuli/Electronic device & accessory.png,stimuli/Hand labour tool & accessory.png,stimuli/Outdoor activity & sport item.png,stimuli/Kitchen & utensil.png,,Electronic device & accessory,1,1,stimuli/objects/taperecorder.jpg,,,,,,,,1,1,0.5253,0,63,63,63,1,1
,,,,,,,,,,,,,,15,308395,2021-12-28_10h24.35.734,MemLear_ses-01_part-01_label-phase1,2020.1.3,Win32,60,,,,,,,,,,,,stimuli/m_orange.jpg,stimuli/Hand labour tool & accessory.png,stimuli/Outdoor activity & sport item.png,stimuli/Kitchen & utensil.png,stimuli/Electronic device & accessory.png,,Electronic device & accessory,4,1,stimuli/objects/carantenna.jpg,,,,,,,,4,1,2.1366,0,64,64,64,1,1
,,,,,,,,,,,,,,15,308395,2021-12-28_10h24.35.734,MemLear_ses-01_part-01_label-phase1,2020.1.3,Win32,60,,,,,,,,,,,,stimuli/m_orange.jpg,stimuli/Hand labour tool & accessory.png,stimuli/Outdoor activity & sport item.png,stimuli/Electronic device & accessory.png,stimuli/Kitchen & utensil.png,,Electronic device & accessory,3,1,stimuli/objects/lectern01.jpg,,,,,,,,3,1,1.0879,0,65,65,65,1,1
,,,,,,,,,,,,,,15,308395,2021-12-28_10h24.35.734,MemLear_ses-01_part-01_label-phase1,2020.1.3,Win32,60,,,,,,,,,,,,stimuli/m_black.jpg,stimuli/Kitchen & utensil.png,stimuli/Electronic device & accessory.png,stimuli/Outdoor activity & sport item.png,stimuli/Hand labour tool & accessory.png,,Kitchen & utensil,1,1,stimuli/objects/ramekin01.jpg,,,,,,,,2,0,2.2439,0,66,66,66,1,0
,,,,,,,,,,,,,,15,308395,2021-12-28_10h24.35.734,MemLear_ses-01_part-01_label-phase1,2020.1.3,Win32,60,,,,,,,,,,,,stimuli/m_orange.jpg,stimuli/Hand labour tool & accessory.png,stimuli/Kitchen & utensil.png,stimuli/Outdoor activity & sport item.png,stimuli/Electronic device & accessory.png,,Electronic device & accessory,4,1,stimuli/objects/videocamera01a.jpg,,,,,,,,4,1,1.0784,0,67,67,67,1,1
,,,,,,,,,,,,,,15,308395,2021-12-28_10h24.35.734,MemLear_ses-01_part-01_label-phase1,2020.1.3,Win32,60,,,,,,,,,,,,stimuli/m_orange.jpg,stimuli/Outdoor activity & sport item.png,stimuli/Hand labour tool & accessory.png,stimuli/Kitchen & utensil.png,stimuli/Electronic device & accessory.png,,Outdoor activity & sport item,1,0,stimuli/objects/kneepad01c.jpg,,,,,,,,4,0,0.673,0,68,68,68,1,1
,,,,,,,,,,,,,,15,308395,2021-12-28_10h24.35.734,MemLear_ses-01_part-01_label-phase1,2020.1.3,Win32,60,,,,,,,,,,,,stimuli/m_black.jpg,stimuli/Hand labour tool & accessory.png,stimuli/Kitchen & utensil.png,stimuli/Electronic device & accessory.png,stimuli/Outdoor activity & sport item.png,,Kitchen & utensil,2,1,stimuli/objects/coffeepot03a.jpg,,,,,,,,2,1,0.9814,0,69,69,69,1,0
,,,,,,,,,,,,,,15,308395,2021-12-28_10h24.35.734,MemLear_ses-01_part-01_label-phase1,2020.1.3,Win32,60,,,,,,,,,,,,stimuli/m_black.jpg,stimuli/Hand labour tool & accessory.png,stimuli/Outdoor activity & sport item.png,stimuli/Electronic device & accessory.png,stimuli/Kitchen & utensil.png,,Kitchen & utensil,4,1,stimuli/objects/cuttingboard.jpg,,,,,,,,4,1,1.7907,0,70,70,70,1,0
,,,,,,,,,,,,,,15,308395,2021-12-28_10h24.35.734,MemLear_ses-01_part-01_label-phase1,2020.1.3,Win32,60,,,,,,,,,,,,stimuli/m_orange.jpg,stimuli/Hand labour tool & accessory.png,stimuli/Electronic device & accessory.png,stimuli/Kitchen & utensil.png,stimuli/Outdoor activity & sport item.png,,Outdoor activity & sport item,4,0,stimuli/objects/podium.jpg,,,,,,,,2,0,1.2968,0,71,71,71,1,1
,,,,,,,,,,,,,,15,308395,2021-12-28_10h24.35.734,MemLear_ses-01_part-01_label-phase1,2020.1.3,Win32,60,,,,,,,,,,,,stimuli/m_black.jpg,stimuli/Outdoor activity & sport item.png,stimuli/Hand labour tool & accessory.png,stimuli/Electronic device & accessory.png,stimuli/Kitchen & utensil.png,,Kitchen & utensil,4,1,stimuli/objects/saltshaker03a.jpg,,,,,,,,4,1,1.4019,0,72,72,72,1,0
,,,,,,,,,,,,,,15,308395,2021-12-28_10h24.35.734,MemLear_ses-01_part-01_label-phase1,2020.1.3,Win32,60,,,,,,,,,,,,stimuli/m_black.jpg,stimuli/Hand labour tool & accessory.png,stimuli/Outdoor activity & sport item.png,stimuli/Kitchen & utensil.png,stimuli/Electronic device & accessory.png,,Electronic device & accessory,4,0,stimuli/objects/faxmachine.jpg,,,,,,,,3,0,0.8367,0,73,73,73,1,0
,,,,,,,,,,,,,,15,308395,2021-12-28_10h24.35.734,MemLear_ses-01_part-01_label-phase1,2020.1.3,Win32,60,,,,,,,,,,,,stimuli/m_orange.jpg,stimuli/Hand labour tool & accessory.png,stimuli/Outdoor activity & sport item.png,stimuli/Electronic device & accessory.png,stimuli/Kitchen & utensil.png,,Electronic device & accessory,3,1,stimuli/objects/cashregister01.jpg,,,,,,,,3,1,0.7027,0,74,74,74,1,1
,,,,,,,,,,,,,,15,308395,2021-12-28_10h24.35.734,MemLear_ses-01_part-01_label-phase1,2020.1.3,Win32,60,,,,,,,,,,,,stimuli/m_orange.jpg,stimuli/Electronic device & accessory.png,stimuli/Kitchen & utensil.png,stimuli/Hand labour tool & accessory.png,stimuli/Outdoor activity & sport item.png,,Electronic device & accessory,1,1,stimuli/objects/coffeemachine.jpg,,,,,,,,2,0,0.9954,0,75,75,75,1,1
,,,,,,,,,,,,,,15,308395,2021-12-28_10h24.35.734,MemLear_ses-01_part-01_label-phase1,2020.1.3,Win32,60,,,,,,,,,,,,stimuli/m_black.jpg,stimuli/Hand labour tool & accessory.png,stimuli/Kitchen & utensil.png,stimuli/Outdoor activity & sport item.png,stimuli/Electronic device & accessory.png,,Kitchen & utensil,2,1,stimuli/objects/fork03c.jpg,,,,,,,,2,1,1.3904,0,76,76,76,1,0
,,,,,,,,,,,,,,15,308395,2021-12-28_10h24.35.734,MemLear_ses-01_part-01_label-phase1,2020.1.3,Win32,60,,,,,,,,,,,,stimuli/m_orange.jpg,stimuli/Hand labour tool & accessory.png,stimuli/Electronic device & accessory.png,stimuli/Outdoor activity & sport item.png,stimuli/Kitchen & utensil.png,,Electronic device & accessory,2,1,stimuli/objects/chandelier.jpg,,,,,,,,4,0,1.8957,0,77,77,77,1,1
,,,,,,,,,,,,,,15,308395,2021-12-28_10h24.35.734,MemLear_ses-01_part-01_label-phase1,2020.1.3,Win32,60,,,,,,,,,,,,stimuli/m_black.jpg,stimuli/Kitchen & utensil.png,stimuli/Outdoor activity & sport item.png,stimuli/Hand labour tool & accessory.png,stimuli/Electronic device & accessory.png,,Kitchen & utensil,1,1,stimuli/objects/bottlecap.jpg,,,,,,,,1,1,2.3005,0,78,78,78,1,0
,,,,,,,,,,,,,,15,308395,2021-12-28_10h24.35.734,MemLear_ses-01_part-01_label-phase1,2020.1.3,Win32,60,,,,,,,,,,,,stimuli/m_orange.jpg,stimuli/Outdoor activity & sport item.png,stimuli/Electronic device & accessory.png,stimuli/Hand labour tool & accessory.png,stimuli/Kitchen & utensil.png,,Electronic device & accessory,2,1,stimuli/objects/powercable.jpg,,,,,,,,2,1,1.3319,0,79,79,79,1,1
,,,,,,,,,,,,,,15,308395,2021-12-28_10h24.35.734,MemLear_ses-01_part-01_label-phase1,2020.1.3,Win32,60,,,,,,,,,,,,stimuli/m_orange.jpg,stimuli/Outdoor activity & sport item.png,stimuli/Kitchen & utensil.png,stimuli/Electronic device & accessory.png,stimuli/Hand labour tool & accessory.png,,Outdoor activity & sport item,1,0,stimuli/objects/beachumbrella01.jpg,,,,,,,,3,0,1.1146,0,80,80,80,1,1
,,,,,,,,,,,,,,15,308395,2021-12-28_10h24.35.734,MemLear_ses-01_part-01_label-phase1,2020.1.3,Win32,60,,,,,,,,,,,,stimuli/m_black.jpg,stimuli/Outdoor activity & sport item.png,stimuli/Electronic device & accessory.png,stimuli/Hand labour tool & accessory.png,stimuli/Kitchen & utensil.png,,Kitchen & utensil,4,1,stimuli/objects/potatomasher03b.jpg,,,,,,,,2,0,1.835,0,81,81,81,1,0
,,,,,,,,,,,,,,15,308395,2021-12-28_10h24.35.734,MemLear_ses-01_part-01_label-phase1,2020.1.3,Win32,60,,,,,,,,,,,,stimuli/m_orange.jpg,stimuli/Hand labour tool & accessory.png,stimuli/Kitchen & utensil.png,stimuli/Electronic device & accessory.png,stimuli/Outdoor activity & sport item.png,,Electronic device & accessory,3,1,stimuli/objects/walkman.jpg,,,,,,,,2,0,0.9257,0,82,82,82,1,1
,,,,,,,,,,,,,,15,308395,2021-12-28_10h24.35.734,MemLear_ses-01_part-01_label-phase1,2020.1.3,Win32,60,,,,,,,,,,,,stimuli/m_orange.jpg,stimuli/Kitchen & utensil.png,stimuli/Outdoor activity & sport item.png,stimuli/Hand labour tool & accessory.png,stimuli/Electronic device & accessory.png,,Electronic device & accessory,4,1,stimuli/objects/gps.jpg,,,,,,,,4,1,0.9518,0,83,83,83,1,1
,,,,,,,,,,,,,,15,308395,2021-12-28_10h24.35.734,MemLear_ses-01_part-01_label-phase1,2020.1.3,Win32,60,,,,,,,,,,,,stimuli/m_black.jpg,stimuli/Outdoor activity & sport item.png,stimuli/Electronic device & accessory.png,stimuli/Hand labour tool & accessory.png,stimuli/Kitchen & utensil.png,,Kitchen & utensil,4,1,stimuli/objects/handmixer01d.jpg,,,,,,,,2,0,1.6692,0,84,84,84,1,0
,,,,,,,,,,,,,,15,308395,2021-12-28_10h24.35.734,MemLear_ses-01_part-01_label-phase1,2020.1.3,Win32,60,,,,,,,,,,,,stimuli/m_black.jpg,stimuli/Outdoor activity & sport item.png,stimuli/Kitchen & utensil.png,stimuli/Electronic device & accessory.png,stimuli/Hand labour tool & accessory.png,,Outdoor activity & sport item,1,0,stimuli/objects/charcoalbarbecue.jpg,,,,,,,,4,0,2.4607,0,85,85,85,1,0
,,,,,,,,,,,,,,15,308395,2021-12-28_10h24.35.734,MemLear_ses-01_part-01_label-phase1,2020.1.3,Win32,60,,,,,,,,,,,,stimuli/m_black.jpg,stimuli/Electronic device & accessory.png,stimuli/Hand labour tool & accessory.png,stimuli/Outdoor activity & sport item.png,stimuli/Kitchen & utensil.png,,Outdoor activity & sport item,3,0,stimuli/objects/bikepump01.jpg,,,,,,,,4,0,0.8185,0,86,86,86,1,0
,,,,,,,,,,,,,,15,308395,2021-12-28_10h24.35.734,MemLear_ses-01_part-01_label-phase1,2020.1.3,Win32,60,,,,,,,,,,,,stimuli/m_orange.jpg,stimuli/Electronic device & accessory.png,stimuli/Outdoor activity & sport item.png,stimuli/Hand labour tool & accessory.png,stimuli/Kitchen & utensil.png,,Electronic device & accessory,1,1,stimuli/objects/extensioncord.jpg,,,,,,,,1,1,1.7601,0,87,87,87,1,1
,,,,,,,,,,,,,,15,308395,2021-12-28_10h24.35.734,MemLear_ses-01_part-01_label-phase1,2020.1.3,Win32,60,,,,,,,,,,,,stimuli/m_orange.jpg,stimuli/Hand labour tool & accessory.png,stimuli/Kitchen & utensil.png,stimuli/Electronic device & accessory.png,stimuli/Outdoor activity & sport item.png,,Kitchen & utensil,2,0,stimuli/objects/fridge.jpg,,,,,,,,3,0,3.1475,0,88,88,88,1,1
,,,,,,,,,,,,,,15,308395,2021-12-28_10h24.35.734,MemLear_ses-01_part-01_label-phase1,2020.1.3,Win32,60,,,,,,,,,,,,stimuli/m_black.jpg,stimuli/Kitchen & utensil.png,stimuli/Hand labour tool & accessory.png,stimuli/Outdoor activity & sport item.png,stimuli/Electronic device & accessory.png,,Kitchen & utensil,1,1,stimuli/objects/martiniglass01b.jpg,,,,,,,,4,0,2.9108,0,89,89,89,1,0
,,,,,,,,,,,,,,15,308395,2021-12-28_10h24.35.734,MemLear_ses-01_part-01_label-phase1,2020.1.3,Win32,60,,,,,,,,,,,,stimuli/m_black.jpg,stimuli/Kitchen & utensil.png,stimuli/Hand labour tool & accessory.png,stimuli/Electronic device & accessory.png,stimuli/Outdoor activity & sport item.png,,Hand labour tool & accessory,2,0,stimuli/objects/lawnmower.jpg,,,,,,,,1,0,1.3245,0,90,90,90,1,0
,,,,,,,,,,,,,,15,308395,2021-12-28_10h24.35.734,MemLear_ses-01_part-01_label-phase1,2020.1.3,Win32,60,,,,,,,,,,,,stimuli/m_orange.jpg,stimuli/Electronic device & accessory.png,stimuli/Hand labour tool & accessory.png,stimuli/Outdoor activity & sport item.png,stimuli/Kitchen & utensil.png,,Electronic device & accessory,1,1,stimuli/objects/carlighter02.jpg,,,,,,,,4,0,3.0493,0,91,91,91,1,1
,,,,,,,,,,,,,,15,308395,2021-12-28_10h24.35.734,MemLear_ses-01_part-01_label-phase1,2020.1.3,Win32,60,,,,,,,,,,,,stimuli/m_black.jpg,stimuli/Outdoor activity & sport item.png,stimuli/Electronic device & accessory.png,stimuli/Hand labour tool & accessory.png,stimuli/Kitchen & utensil.png,,Hand labour tool & accessory,3,0,stimuli/objects/caulking.jpg,,,,,,,,4,0,0.6407,0,92,92,92,1,0
,,,,,,,,,,,,,,15,308395,2021-12-28_10h24.35.734,MemLear_ses-01_part-01_label-phase1,2020.1.3,Win32,60,,,,,,,,,,,,stimuli/m_black.jpg,stimuli/Hand labour tool & accessory.png,stimuli/Electronic device & accessory.png,stimuli/Kitchen & utensil.png,stimuli/Outdoor activity & sport item.png,,Hand labour tool & accessory,1,0,stimuli/objects/wateringcan.jpg,,,,,,,,2,0,1.0434,0,93,93,93,1,0
,,,,,,,,,,,,,,15,308395,2021-12-28_10h24.35.734,MemLear_ses-01_part-01_label-phase1,2020.1.3,Win32,60,,,,,,,,,,,,stimuli/m_black.jpg,stimuli/Outdoor activity & sport item.png,stimuli/Electronic device & accessory.png,stimuli/Kitchen & utensil.png,stimuli/Hand labour tool & accessory.png,,Kitchen & utensil,3,1,stimuli/objects/whisk.jpg,,,,,,,,1,0,1.6277,0,94,94,94,1,0
,,,,,,,,,,,,,,15,308395,2021-12-28_10h24.35.734,MemLear_ses-01_part-01_label-phase1,2020.1.3,Win32,60,,,,,,,,,,,,stimuli/m_black.jpg,stimuli/Electronic device & accessory.png,stimuli/Kitchen & utensil.png,stimuli/Hand labour tool & accessory.png,stimuli/Outdoor activity & sport item.png,,Kitchen & utensil,2,1,stimuli/objects/breadknife.jpg,,,,,,,,2,1,0.4923,0,95,95,95,1,0
,,,,,,,,,,,,,,15,308395,2021-12-28_10h24.35.734,MemLear_ses-01_part-01_label-phase1,2020.1.3,Win32,60,,,,,,,,,,,,stimuli/m_orange.jpg,stimuli/Electronic device & accessory.png,stimuli/Outdoor activity & sport item.png,stimuli/Kitchen & utensil.png,stimuli/Hand labour tool & accessory.png,,Electronic device & accessory,1,1,stimuli/objects/remotecontrol04.jpg,,,,,,,,1,1,1.4838,0,96,96,96,1,1
,,,,,,,,,,,,,,15,308395,2021-12-28_10h24.35.734,MemLear_ses-01_part-01_label-phase1,2020.1.3,Win32,60,,,,,,,,,,,,stimuli/m_black.jpg,stimuli/Outdoor activity & sport item.png,stimuli/Kitchen & utensil.png,stimuli/Hand labour tool & accessory.png,stimuli/Electronic device & accessory.png,,Kitchen & utensil,2,1,stimuli/objects/icepack.jpg,,,,,,,,2,1,1.4813,0,97,97,97,1,0
,,,,,,,,,,,,,,15,308395,2021-12-28_10h24.35.734,MemLear_ses-01_part-01_label-phase1,2020.1.3,Win32,60,,,,,,,,,,,,stimuli/m_black.jpg,stimuli/Kitchen & utensil.png,stimuli/Electronic device & accessory.png,stimuli/Hand labour tool & accessory.png,stimuli/Outdoor activity & sport item.png,,Kitchen & utensil,1,1,stimuli/objects/servingspoon01.jpg,,,,,,,,1,1,0.946,0,98,98,98,1,0
,,,,,,,,,,,,,,15,308395,2021-12-28_10h24.35.734,MemLear_ses-01_part-01_label-phase1,2020.1.3,Win32,60,,,,,,,,,,,,stimuli/m_orange.jpg,stimuli/Hand labour tool & accessory.png,stimuli/Electronic device & accessory.png,stimuli/Kitchen & utensil.png,stimuli/Outdoor activity & sport item.png,,Electronic device & accessory,2,1,stimuli/objects/payphone.jpg,,,,,,,,2,1,0.8176,0,99,99,99,1,1
,,,,,,,,,,,,,,15,308395,2021-12-28_10h24.35.734,MemLear_ses-01_part-01_label-phase1,2020.1.3,Win32,60,,,,,,,,,,,,stimuli/m_orange.jpg,stimuli/Kitchen & utensil.png,stimuli/Hand labour tool & accessory.png,stimuli/Electronic device & accessory.png,stimuli/Outdoor activity & sport item.png,,Hand labour tool & accessory,2,0,stimuli/objects/adjustablewrench01b.jpg,,,,,,,,3,0,1.1213,0,100,100,100,1,1
,,,,,,,,,,,,,,15,308395,2021-12-28_10h24.35.734,MemLear_ses-01_part-01_label-phase1,2020.1.3,Win32,60,,,,,,,,,,,,stimuli/m_orange.jpg,stimuli/Outdoor activity & sport item.png,stimuli/Hand labour tool & accessory.png,stimuli/Electronic device & accessory.png,stimuli/Kitchen & utensil.png,,Outdoor activity & sport item,1,0,stimuli/objects/golfbag.jpg,,,,,,,,3,0,0.944,0,101,101,101,1,1
,,,,,,,,,,,,,,15,308395,2021-12-28_10h24.35.734,MemLear_ses-01_part-01_label-phase1,2020.1.3,Win32,60,,,,,,,,,,,,stimuli/m_orange.jpg,stimuli/Hand labour tool & accessory.png,stimuli/Outdoor activity & sport item.png,stimuli/Electronic device & accessory.png,stimuli/Kitchen & utensil.png,,Electronic device & accessory,3,1,stimuli/objects/filmroll.jpg,,,,,,,,,0,,0,102,102,102,1,1
,,,,,,,,,,,,,,15,308395,2021-12-28_10h24.35.734,MemLear_ses-01_part-01_label-phase1,2020.1.3,Win32,60,,,,,,,,,,,,stimuli/m_black.jpg,stimuli/Hand labour tool & accessory.png,stimuli/Outdoor activity & sport item.png,stimuli/Electronic device & accessory.png,stimuli/Kitchen & utensil.png,,Kitchen & utensil,4,1,stimuli/objects/icebucket.jpg,,,,,,,,2,0,0.7011,0,103,103,103,1,0
,,,,,,,,,,,,,,15,308395,2021-12-28_10h24.35.734,MemLear_ses-01_part-01_label-phase1,2020.1.3,Win32,60,,,,,,,,,,,,stimuli/m_orange.jpg,stimuli/Hand labour tool & accessory.png,stimuli/Electronic device & accessory.png,stimuli/Outdoor activity & sport item.png,stimuli/Kitchen & utensil.png,,Hand labour tool & accessory,1,0,stimuli/objects/squeegee01b.jpg,,,,,,,,3,0,1.1837,0,104,104,104,1,1
,,,,,,,,,,,,,,15,308395,2021-12-28_10h24.35.734,MemLear_ses-01_part-01_label-phase1,2020.1.3,Win32,60,,,,,,,,,,,,stimuli/m_orange.jpg,stimuli/Hand labour tool & accessory.png,stimuli/Kitchen & utensil.png,stimuli/Outdoor activity & sport item.png,stimuli/Electronic device & accessory.png,,Electronic device & accessory,4,1,stimuli/objects/camera01a.jpg,,,,,,,,4,1,1.0081,0,105,105,105,1,1
,,,,,,,,,,,,,,15,308395,2021-12-28_10h24.35.734,MemLear_ses-01_part-01_label-phase1,2020.1.3,Win32,60,,,,,,,,,,,,stimuli/m_black.jpg,stimuli/Hand labour tool & accessory.png,stimuli/Electronic device & accessory.png,stimuli/Outdoor activity & sport item.png,stimuli/Kitchen & utensil.png,,Hand labour tool & accessory,1,0,stimuli/objects/cuttingpliers02.jpg,,,,,,,,2,0,1.7358,0,106,106,106,1,0
,,,,,,,,,,,,,,15,308395,2021-12-28_10h24.35.734,MemLear_ses-01_part-01_label-phase1,2020.1.3,Win32,60,,,,,,,,,,,,stimuli/m_black.jpg,stimuli/Hand labour tool & accessory.png,stimuli/Outdoor activity & sport item.png,stimuli/Electronic device & accessory.png,stimuli/Kitchen & utensil.png,,Kitchen & utensil,4,1,stimuli/objects/toasteroven.jpg,,,,,,,,2,0,0.8352,0,107,107,107,1,0
,,,,,,,,,,,,,,15,308395,2021-12-28_10h24.35.734,MemLear_ses-01_part-01_label-phase1,2020.1.3,Win32,60,,,,,,,,,,,,stimuli/m_orange.jpg,stimuli/Kitchen & utensil.png,stimuli/Outdoor activity & sport item.png,stimuli/Electronic device & accessory.png,stimuli/Hand labour tool & accessory.png,,Electronic device & accessory,3,1,stimuli/objects/soundmixer.jpg,,,,,,,,3,1,1.7914,0,108,108,108,1,1
,,,,,,,,,,,,,,15,308395,2021-12-28_10h24.35.734,MemLear_ses-01_part-01_label-phase1,2020.1.3,Win32,60,,,,,,,,,,,,stimuli/m_black.jpg,stimuli/Kitchen & utensil.png,stimuli/Outdoor activity & sport item.png,stimuli/Electronic device & accessory.png,stimuli/Hand labour tool & accessory.png,,Hand labour tool & accessory,4,0,stimuli/objects/snowshovel.jpg,,,,,,,,1,0,1.7232,0,109,109,109,1,0
,,,,,,,,,,,,,,15,308395,2021-12-28_10h24.35.734,MemLear_ses-01_part-01_label-phase1,2020.1.3,Win32,60,,,,,,,,,,,,stimuli/m_orange.jpg,stimuli/Kitchen & utensil.png,stimuli/Electronic device & accessory.png,stimuli/Outdoor activity & sport item.png,stimuli/Hand labour tool & accessory.png,,Electronic device & accessory,2,1,stimuli/objects/desktopcomputer.jpg,,,,,,,,2,1,1.7693,0,110,110,110,1,1
,,,,,,,,,,,,,,15,308395,2021-12-28_10h24.35.734,MemLear_ses-01_part-01_label-phase1,2020.1.3,Win32,60,,,,,,,,,,,,stimuli/m_orange.jpg,stimuli/Kitchen & utensil.png,stimuli/Outdoor activity & sport item.png,stimuli/Electronic device & accessory.png,stimuli/Hand labour tool & accessory.png,,Hand labour tool & accessory,4,0,stimuli/objects/painttray.jpg,,,,,,,,3,0,1.6391,0,111,111,111,1,1
,,,,,,,,,,,,,,15,308395,2021-12-28_10h24.35.734,MemLear_ses-01_part-01_label-phase1,2020.1.3,Win32,60,,,,,,,,,,,,stimuli/m_black.jpg,stimuli/Outdoor activity & sport item.png,stimuli/Hand labour tool & accessory.png,stimuli/Kitchen & utensil.png,stimuli/Electronic device & accessory.png,,Kitchen & utensil,3,1,stimuli/objects/freezer02.jpg,,,,,,,,2,0,1.1142,0,112,112,112,1,0
,,,,,,,,,,,,,,15,308395,2021-12-28_10h24.35.734,MemLear_ses-01_part-01_label-phase1,2020.1.3,Win32,60,,,,,,,,,,,,stimuli/m_black.jpg,stimuli/Outdoor activity & sport item.png,stimuli/Hand labour tool & accessory.png,stimuli/Kitchen & utensil.png,stimuli/Electronic device & accessory.png,,Outdoor activity & sport item,1,0,stimuli/objects/swimgoggles.jpg,,,,,,,,4,0,1.7735,0,113,113,113,1,0
,,,,,,,,,,,,,,15,308395,2021-12-28_10h24.35.734,MemLear_ses-01_part-01_label-phase1,2020.1.3,Win32,60,,,,,,,,,,,,stimuli/m_black.jpg,stimuli/Kitchen & utensil.png,stimuli/Hand labour tool & accessory.png,stimuli/Electronic device & accessory.png,stimuli/Outdoor activity & sport item.png,,Electronic device & accessory,3,0,stimuli/objects/cameracase01a.jpg,,,,,,,,3,1,2.411,0,114,114,114,1,0
,,,,,,,,,,,,,,15,308395,2021-12-28_10h24.35.734,MemLear_ses-01_part-01_label-phase1,2020.1.3,Win32,60,,,,,,,,,,,,stimuli/m_orange.jpg,stimuli/Electronic device & accessory.png,stimuli/Kitchen & utensil.png,stimuli/Hand labour tool & accessory.png,stimuli/Outdoor activity & sport item.png,,Electronic device & accessory,1,1,stimuli/objects/computerkeyboard02.jpg,,,,,,,,1,1,1.3182,0,115,115,115,1,1
,,,,,,,,,,,,,,15,308395,2021-12-28_10h24.35.734,MemLear_ses-01_part-01_label-phase1,2020.1.3,Win32,60,,,,,,,,,,,,stimuli/m_black.jpg,stimuli/Electronic device & accessory.png,stimuli/Outdoor activity & sport item.png,stimuli/Hand labour tool & accessory.png,stimuli/Kitchen & utensil.png,,Kitchen & utensil,4,1,stimuli/objects/waterbottle03.jpg,,,,,,,,4,1,1.4359,0,116,116,116,1,0
,,,,,,,,,,,,,,15,308395,2021-12-28_10h24.35.734,MemLear_ses-01_part-01_label-phase1,2020.1.3,Win32,60,,,,,,,,,,,,stimuli/m_orange.jpg,stimuli/Kitchen & utensil.png,stimuli/Hand labour tool & accessory.png,stimuli/Electronic device & accessory.png,stimuli/Outdoor activity & sport item.png,,Kitchen & utensil,1,0,stimuli/objects/oven.jpg,,,,,,,,3,0,1.7869,0,117,117,117,1,1
,,,,,,,,,,,,,,15,308395,2021-12-28_10h24.35.734,MemLear_ses-01_part-01_label-phase1,2020.1.3,Win32,60,,,,,,,,,,,,stimuli/m_black.jpg,stimuli/Hand labour tool & accessory.png,stimuli/Electronic device & accessory.png,stimuli/Kitchen & utensil.png,stimuli/Outdoor activity & sport item.png,,Outdoor activity & sport item,4,0,stimuli/objects/backpack01a.jpg,,,,,,,,3,0,2.013,0,118,118,118,1,0
,,,,,,,,,,,,,,15,308395,2021-12-28_10h24.35.734,MemLear_ses-01_part-01_label-phase1,2020.1.3,Win32,60,,,,,,,,,,,,stimuli/m_black.jpg,stimuli/Outdoor activity & sport item.png,stimuli/Electronic device & accessory.png,stimuli/Kitchen & utensil.png,stimuli/Hand labour tool & accessory.png,,Kitchen & utensil,3,1,stimuli/objects/measuringspoon.jpg,,,,,,,,2,0,0.9043,0,119,119,119,1,0
