illustration_loop.thisRepN,illustration_loop.thisTrialN,illustration_loop.thisN,illustration_loop.thisIndex,illustration_loop.ran,images,key,participant,Expra Code,date,expName,psychopyVersion,OS,frameRate,key_resp_4.keys,key_resp_4.corr,key_resp_4.rt,n_back_loop.thisRepN,n_back_loop.thisTrialN,n_back_loop.thisN,n_back_loop.thisIndex,n_back_loop.ran,word,CORRanswer,trialtype,hit_NoHit
0,0,0,0,1,slide 1.jpg,'space’,17,,2022-01-09_23h11.39.109,MemLear_ses-01_part-02_label-nBack,2020.1.3,Win32,60,,,,,,,,,,,,
0,1,1,1,1,slide 2.jpg,'l’,17,,2022-01-09_23h11.39.109,MemLear_ses-01_part-02_label-nBack,2020.1.3,Win32,60,,,,,,,,,,,,
0,2,2,2,1,slide 3.jpg,'l’,17,,2022-01-09_23h11.39.109,MemLear_ses-01_part-02_label-nBack,2020.1.3,Win32,60,,,,,,,,,,,,
0,3,3,3,1,slide 4.jpg,'l’,17,,2022-01-09_23h11.39.109,MemLear_ses-01_part-02_label-nBack,2020.1.3,Win32,60,,,,,,,,,,,,
0,4,4,4,1,slide 5.jpg,'d’,17,,2022-01-09_23h11.39.109,MemLear_ses-01_part-02_label-nBack,2020.1.3,Win32,60,,,,,,,,,,,,
0,5,5,5,1,slide 6.jpg,'l’,17,,2022-01-09_23h11.39.109,MemLear_ses-01_part-02_label-nBack,2020.1.3,Win32,60,,,,,,,,,,,,
,,,,,,,17,,2022-01-09_23h11.39.109,MemLear_ses-01_part-02_label-nBack,2020.1.3,Win32,60,"[""d""]",0,[9.583699999988085],0,0,0,0,1,bless,l,0,NoHit
,,,,,,,17,,2022-01-09_23h11.39.109,MemLear_ses-01_part-02_label-nBack,2020.1.3,Win32,60,"[""d""]",0,[1.4623000000119077],0,1,1,1,1,nature,l,0,NoHit
,,,,,,,17,,2022-01-09_23h11.39.109,MemLear_ses-01_part-02_label-nBack,2020.1.3,Win32,60,"[""d""]",0,[0.9751999999880354],0,2,2,2,1,carefree,l,0,NoHit
,,,,,,,17,,2022-01-09_23h11.39.109,MemLear_ses-01_part-02_label-nBack,2020.1.3,Win32,60,"[""l""]",0,[0.7715000000000032],0,3,3,3,1,nature,d,1,Hit
,,,,,,,17,,2022-01-09_23h11.39.109,MemLear_ses-01_part-02_label-nBack,2020.1.3,Win32,60,"[""d""]",0,[1.612400000035791],0,4,4,4,1,easygoing,l,0,NoHit
,,,,,,,17,,2022-01-09_23h11.39.109,MemLear_ses-01_part-02_label-nBack,2020.1.3,Win32,60,"[""d""]",0,[0.8108000000119091],0,5,5,5,1,pillow,l,0,NoHit
,,,,,,,17,,2022-01-09_23h11.39.109,MemLear_ses-01_part-02_label-nBack,2020.1.3,Win32,60,"[""l""]",0,[0.8124000000357228],0,6,6,6,1,easygoing,d,1,Hit
,,,,,,,17,,2022-01-09_23h11.39.109,MemLear_ses-01_part-02_label-nBack,2020.1.3,Win32,60,"[""d""]",0,[2.1737000000476883],0,7,7,7,1,gentle,l,0,NoHit
,,,,,,,17,,2022-01-09_23h11.39.109,MemLear_ses-01_part-02_label-nBack,2020.1.3,Win32,60,"[""d""]",0,[1.63900000000001],0,8,8,8,1,square,l,0,NoHit
,,,,,,,17,,2022-01-09_23h11.39.109,MemLear_ses-01_part-02_label-nBack,2020.1.3,Win32,60,"[""l""]",0,[0.7121000000238382],0,9,9,9,1,gentle,d,1,Hit
,,,,,,,17,,2022-01-09_23h11.39.109,MemLear_ses-01_part-02_label-nBack,2020.1.3,Win32,60,"[""d""]",0,[1.375900000035756],0,10,10,10,1,carefree,l,0,NoHit
,,,,,,,17,,2022-01-09_23h11.39.109,MemLear_ses-01_part-02_label-nBack,2020.1.3,Win32,60,"[""d""]",0,[1.0089000000357373],0,11,11,11,1,tool,l,0,NoHit
,,,,,,,17,,2022-01-09_23h11.39.109,MemLear_ses-01_part-02_label-nBack,2020.1.3,Win32,60,"[""d""]",0,[0.7090999999642804],0,12,12,12,1,bored,l,0,NoHit
,,,,,,,17,,2022-01-09_23h11.39.109,MemLear_ses-01_part-02_label-nBack,2020.1.3,Win32,60,"[""d""]",1,[4.094499999999982],0,13,13,13,1,tool,d,1,Hit
,,,,,,,17,,2022-01-09_23h11.39.109,MemLear_ses-01_part-02_label-nBack,2020.1.3,Win32,60,"[""d""]",0,[0.8525000000000205],0,14,14,14,1,home,l,0,NoHit
,,,,,,,17,,2022-01-09_23h11.39.109,MemLear_ses-01_part-02_label-nBack,2020.1.3,Win32,60,"[""d""]",0,[0.771000000000015],0,15,15,15,1,immature,l,0,NoHit
,,,,,,,17,,2022-01-09_23h11.39.109,MemLear_ses-01_part-02_label-nBack,2020.1.3,Win32,60,"[""l""]",0,[0.804099999964194],0,16,16,16,1,home,d,1,Hit
,,,,,,,17,,2022-01-09_23h11.39.109,MemLear_ses-01_part-02_label-nBack,2020.1.3,Win32,60,"[""d""]",0,[0.8965000000000032],0,17,17,17,1,fault,l,0,NoHit
,,,,,,,17,,2022-01-09_23h11.39.109,MemLear_ses-01_part-02_label-nBack,2020.1.3,Win32,60,"[""d""]",0,[1.2208999999761545],0,18,18,18,1,pillow,l,0,NoHit
,,,,,,,17,,2022-01-09_23h11.39.109,MemLear_ses-01_part-02_label-nBack,2020.1.3,Win32,60,"[""d""]",0,[0.9331000000238419],0,19,19,19,1,violin,l,0,NoHit
,,,,,,,17,,2022-01-09_23h11.39.109,MemLear_ses-01_part-02_label-nBack,2020.1.3,Win32,60,"[""d""]",1,[1.0478999999761527],0,20,20,20,1,violin,d,1,Hit
,,,,,,,17,,2022-01-09_23h11.39.109,MemLear_ses-01_part-02_label-nBack,2020.1.3,Win32,60,"[""d""]",0,[12.181400000035751],0,21,21,21,1,tense,l,0,NoHit
,,,,,,,17,,2022-01-09_23h11.39.109,MemLear_ses-01_part-02_label-nBack,2020.1.3,Win32,60,"[""d""]",0,[0.7521999999880791],0,22,22,22,1,confident,l,0,NoHit
,,,,,,,17,,2022-01-09_23h11.39.109,MemLear_ses-01_part-02_label-nBack,2020.1.3,Win32,60,"[""d""]",0,[0.7950000000000159],0,23,23,23,1,bomb,l,0,NoHit
,,,,,,,17,,2022-01-09_23h11.39.109,MemLear_ses-01_part-02_label-nBack,2020.1.3,Win32,60,"[""l""]",0,[0.8701000000238537],0,24,24,24,1,confident,d,1,Hit
,,,,,,,17,,2022-01-09_23h11.39.109,MemLear_ses-01_part-02_label-nBack,2020.1.3,Win32,60,"[""d""]",0,[1.0420999999642504],0,25,25,25,1,butterfly,l,0,NoHit
,,,,,,,17,,2022-01-09_23h11.39.109,MemLear_ses-01_part-02_label-nBack,2020.1.3,Win32,60,"[""d""]",0,[0.7678000000119596],0,26,26,26,1,cheer,l,0,NoHit
,,,,,,,17,,2022-01-09_23h11.39.109,MemLear_ses-01_part-02_label-nBack,2020.1.3,Win32,60,"[""d""]",0,[0.7601000000238969],0,27,27,27,1,street,l,0,NoHit
,,,,,,,17,,2022-01-09_23h11.39.109,MemLear_ses-01_part-02_label-nBack,2020.1.3,Win32,60,"[""l""]",0,[0.7403999999761481],0,28,28,28,1,cheer,d,1,Hit
,,,,,,,17,,2022-01-09_23h11.39.109,MemLear_ses-01_part-02_label-nBack,2020.1.3,Win32,60,"[""d""]",0,[0.48889999997612676],0,29,29,29,1,taxi,l,0,NoHit
,,,,,,,17,,2022-01-09_23h11.39.109,MemLear_ses-01_part-02_label-nBack,2020.1.3,Win32,60,"[""d""]",0,[0.8850000000000477],0,30,30,30,1,adventure,l,0,NoHit
,,,,,,,17,,2022-01-09_23h11.39.109,MemLear_ses-01_part-02_label-nBack,2020.1.3,Win32,60,"[""d""]",0,[0.6671999999880995],0,31,31,31,1,crutch,l,0,NoHit
,,,,,,,17,,2022-01-09_23h11.39.109,MemLear_ses-01_part-02_label-nBack,2020.1.3,Win32,60,"[""l""]",0,[0.7333000000119227],0,32,32,32,1,adventure,d,1,Hit
,,,,,,,17,,2022-01-09_23h11.39.109,MemLear_ses-01_part-02_label-nBack,2020.1.3,Win32,60,"[""d""]",0,[0.514900000035766],0,33,33,33,1,vest,l,0,NoHit
,,,,,,,17,,2022-01-09_23h11.39.109,MemLear_ses-01_part-02_label-nBack,2020.1.3,Win32,60,"[""d""]",0,[1.071199999988039],0,34,34,34,1,taxi,l,0,NoHit
,,,,,,,17,,2022-01-09_23h11.39.109,MemLear_ses-01_part-02_label-nBack,2020.1.3,Win32,60,"[""d""]",0,[1.2459000000357605],0,35,35,35,1,brave,l,0,NoHit
,,,,,,,17,,2022-01-09_23h11.39.109,MemLear_ses-01_part-02_label-nBack,2020.1.3,Win32,60,"[""d""]",0,[0.9184999999999945],0,36,36,36,1,square,l,0,NoHit
,,,,,,,17,,2022-01-09_23h11.39.109,MemLear_ses-01_part-02_label-nBack,2020.1.3,Win32,60,"[""l""]",0,[0.8629999999999995],0,37,37,37,1,brave,d,1,Hit
,,,,,,,17,,2022-01-09_23h11.39.109,MemLear_ses-01_part-02_label-nBack,2020.1.3,Win32,60,"[""d""]",0,[0.8781999999880554],0,38,38,38,1,unhappy,l,0,NoHit
,,,,,,,17,,2022-01-09_23h11.39.109,MemLear_ses-01_part-02_label-nBack,2020.1.3,Win32,60,"[""d""]",0,[0.6674999999999613],0,39,39,39,1,deformed,l,0,NoHit
,,,,,,,17,,2022-01-09_23h11.39.109,MemLear_ses-01_part-02_label-nBack,2020.1.3,Win32,60,"[""d""]",0,[0.6598000000118986],0,40,40,40,1,rifle,l,0,NoHit
,,,,,,,17,,2022-01-09_23h11.39.109,MemLear_ses-01_part-02_label-nBack,2020.1.3,Win32,60,"[""l""]",0,[0.9554000000357519],0,41,41,41,1,deformed,d,1,Hit
,,,,,,,17,,2022-01-09_23h11.39.109,MemLear_ses-01_part-02_label-nBack,2020.1.3,Win32,60,"[""d""]",0,[0.4766999999880568],0,42,42,42,1,tense,l,0,NoHit
,,,,,,,17,,2022-01-09_23h11.39.109,MemLear_ses-01_part-02_label-nBack,2020.1.3,Win32,60,"[""d""]",0,[0.8295999999642731],0,43,43,43,1,inferior,l,0,NoHit
,,,,,,,17,,2022-01-09_23h11.39.109,MemLear_ses-01_part-02_label-nBack,2020.1.3,Win32,60,"[""d""]",0,[0.7781999999880895],0,44,44,44,1,exercise,l,0,NoHit
,,,,,,,17,,2022-01-09_23h11.39.109,MemLear_ses-01_part-02_label-nBack,2020.1.3,Win32,60,"[""l""]",0,[0.7310999999642149],0,45,45,45,1,inferior,d,1,Hit
,,,,,,,17,,2022-01-09_23h11.39.109,MemLear_ses-01_part-02_label-nBack,2020.1.3,Win32,60,"[""d""]",0,[1.1908999999761818],0,46,46,46,1,crutch,l,0,NoHit
,,,,,,,17,,2022-01-09_23h11.39.109,MemLear_ses-01_part-02_label-nBack,2020.1.3,Win32,60,"[""d""]",0,[1.4588000000119337],0,47,47,47,1,obesity,l,0,NoHit
,,,,,,,17,,2022-01-09_23h11.39.109,MemLear_ses-01_part-02_label-nBack,2020.1.3,Win32,60,"[""d""]",0,[1.2553999999761345],0,48,48,48,1,bless,l,0,NoHit
,,,,,,,17,,2022-01-09_23h11.39.109,MemLear_ses-01_part-02_label-nBack,2020.1.3,Win32,60,"[""l""]",0,[0.88069999998811],0,49,49,49,1,obesity,d,1,Hit
,,,,,,,17,,2022-01-09_23h11.39.109,MemLear_ses-01_part-02_label-nBack,2020.1.3,Win32,60,"[""d""]",0,[0.7753000000119528],0,50,50,50,1,pistol,l,0,NoHit
,,,,,,,17,,2022-01-09_23h11.39.109,MemLear_ses-01_part-02_label-nBack,2020.1.3,Win32,60,"[""d""]",0,[0.8090999999642463],0,51,51,51,1,bored,l,0,NoHit
,,,,,,,17,,2022-01-09_23h11.39.109,MemLear_ses-01_part-02_label-nBack,2020.1.3,Win32,60,"[""d""]",0,[0.9051000000238218],0,52,52,52,1,pity,l,0,NoHit
,,,,,,,17,,2022-01-09_23h11.39.109,MemLear_ses-01_part-02_label-nBack,2020.1.3,Win32,60,"[""d""]",0,[0.7849000000357478],0,53,53,53,1,politeness,l,0,NoHit
,,,,,,,17,,2022-01-09_23h11.39.109,MemLear_ses-01_part-02_label-nBack,2020.1.3,Win32,60,"[""l""]",0,[0.8973999999761304],0,54,54,54,1,pity,d,1,Hit
,,,,,,,17,,2022-01-09_23h11.39.109,MemLear_ses-01_part-02_label-nBack,2020.1.3,Win32,60,"[""d""]",0,[0.7323999999761668],0,55,55,55,1,beautiful,l,0,NoHit
,,,,,,,17,,2022-01-09_23h11.39.109,MemLear_ses-01_part-02_label-nBack,2020.1.3,Win32,60,"[""d""]",0,[0.8758000000119068],0,56,56,56,1,street,l,0,NoHit
,,,,,,,17,,2022-01-09_23h11.39.109,MemLear_ses-01_part-02_label-nBack,2020.1.3,Win32,60,"[""l""]",0,[1.1008000000119296],0,57,57,57,1,beautiful,d,1,Hit
,,,,,,,17,,2022-01-09_23h11.39.109,MemLear_ses-01_part-02_label-nBack,2020.1.3,Win32,60,"[""d""]",0,[0.8573999999761668],0,58,58,58,1,aroused,l,0,NoHit
,,,,,,,17,,2022-01-09_23h11.39.109,MemLear_ses-01_part-02_label-nBack,2020.1.3,Win32,60,"[""d""]",0,[0.9501999999880582],0,59,59,59,1,demon,l,0,NoHit
,,,,,,,17,,2022-01-09_23h11.39.109,MemLear_ses-01_part-02_label-nBack,2020.1.3,Win32,60,"[""l""]",0,[0.701900000035721],0,60,60,60,1,aroused,d,1,Hit
,,,,,,,17,,2022-01-09_23h11.39.109,MemLear_ses-01_part-02_label-nBack,2020.1.3,Win32,60,"[""d""]",0,[0.6714999999999804],0,61,61,61,1,cash,l,0,NoHit
,,,,,,,17,,2022-01-09_23h11.39.109,MemLear_ses-01_part-02_label-nBack,2020.1.3,Win32,60,"[""d""]",0,[1.0185000000000173],0,62,62,62,1,immature,l,0,NoHit
,,,,,,,17,,2022-01-09_23h11.39.109,MemLear_ses-01_part-02_label-nBack,2020.1.3,Win32,60,"[""d""]",0,[0.8664999999999736],0,63,63,63,1,cheer,l,0,NoHit
,,,,,,,17,,2022-01-09_23h11.39.109,MemLear_ses-01_part-02_label-nBack,2020.1.3,Win32,60,"[""d""]",1,[0.8853000000119096],0,64,64,64,1,cheer,d,1,Hit
,,,,,,,17,,2022-01-09_23h11.39.109,MemLear_ses-01_part-02_label-nBack,2020.1.3,Win32,60,"[""d""]",0,[0.7545000000000073],0,65,65,65,1,controlling,l,0,NoHit
,,,,,,,17,,2022-01-09_23h11.39.109,MemLear_ses-01_part-02_label-nBack,2020.1.3,Win32,60,"[""d""]",0,[0.7181999999880873],0,66,66,66,1,messy,l,0,NoHit
,,,,,,,17,,2022-01-09_23h11.39.109,MemLear_ses-01_part-02_label-nBack,2020.1.3,Win32,60,"[""d""]",0,[0.6802999999523536],0,67,67,67,1,cliff,l,0,NoHit
,,,,,,,17,,2022-01-09_23h11.39.109,MemLear_ses-01_part-02_label-nBack,2020.1.3,Win32,60,"[""d""]",0,[0.8009000000357673],0,68,68,68,1,butterfly,l,0,NoHit
,,,,,,,17,,2022-01-09_23h11.39.109,MemLear_ses-01_part-02_label-nBack,2020.1.3,Win32,60,"[""l""]",0,[1.01190000003578],0,69,69,69,1,cliff,d,1,Hit
,,,,,,,17,,2022-01-09_23h11.39.109,MemLear_ses-01_part-02_label-nBack,2020.1.3,Win32,60,"[""d""]",0,[0.5403000000119391],0,70,70,70,1,erotic,l,0,NoHit
,,,,,,,17,,2022-01-09_23h11.39.109,MemLear_ses-01_part-02_label-nBack,2020.1.3,Win32,60,"[""d""]",0,[0.8172000000477055],0,71,71,71,1,vest,l,0,NoHit
,,,,,,,17,,2022-01-09_23h11.39.109,MemLear_ses-01_part-02_label-nBack,2020.1.3,Win32,60,"[""d""]",0,[0.8721999999880836],0,72,72,72,1,dazzle,l,0,NoHit
,,,,,,,17,,2022-01-09_23h11.39.109,MemLear_ses-01_part-02_label-nBack,2020.1.3,Win32,60,"[""d""]",0,[0.7873000000119532],0,73,73,73,1,disloyal,l,0,NoHit
,,,,,,,17,,2022-01-09_23h11.39.109,MemLear_ses-01_part-02_label-nBack,2020.1.3,Win32,60,"[""l""]",0,[0.6424000000357637],0,74,74,74,1,dazzle,d,1,Hit
,,,,,,,17,,2022-01-09_23h11.39.109,MemLear_ses-01_part-02_label-nBack,2020.1.3,Win32,60,"[""d""]",0,[0.6555999999642381],0,75,75,75,1,defiant,l,0,NoHit
,,,,,,,17,,2022-01-09_23h11.39.109,MemLear_ses-01_part-02_label-nBack,2020.1.3,Win32,60,"[""d""]",0,[0.8101000000238514],0,76,76,76,1,fault,l,0,NoHit
,,,,,,,17,,2022-01-09_23h11.39.109,MemLear_ses-01_part-02_label-nBack,2020.1.3,Win32,60,"[""l""]",0,[0.8658000000119159],0,77,77,77,1,defiant,d,1,Hit
,,,,,,,17,,2022-01-09_23h11.39.109,MemLear_ses-01_part-02_label-nBack,2020.1.3,Win32,60,"[""d""]",0,[0.6776999999880786],0,78,78,78,1,shotgun,l,0,NoHit
,,,,,,,17,,2022-01-09_23h11.39.109,MemLear_ses-01_part-02_label-nBack,2020.1.3,Win32,60,"[""d""]",0,[0.6439000000357282],0,79,79,79,1,revolt,l,0,NoHit
,,,,,,,17,,2022-01-09_23h11.39.109,MemLear_ses-01_part-02_label-nBack,2020.1.3,Win32,60,"[""d""]",0,[0.7392000000476742],0,80,80,80,1,unhappy,l,0,NoHit
,,,,,,,17,,2022-01-09_23h11.39.109,MemLear_ses-01_part-02_label-nBack,2020.1.3,Win32,60,"[""l""]",0,[0.7752000000476755],0,81,81,81,1,revolt,d,1,Hit
,,,,,,,17,,2022-01-09_23h11.39.109,MemLear_ses-01_part-02_label-nBack,2020.1.3,Win32,60,"[""d""]",0,[0.6576000000238764],0,82,82,82,1,car,l,0,NoHit
,,,,,,,17,,2022-01-09_23h11.39.109,MemLear_ses-01_part-02_label-nBack,2020.1.3,Win32,60,"[""d""]",0,[0.6960000000000264],0,83,83,83,1,fight,l,0,NoHit
,,,,,,,17,,2022-01-09_23h11.39.109,MemLear_ses-01_part-02_label-nBack,2020.1.3,Win32,60,"[""d""]",0,[0.922199999988095],0,84,84,84,1,obsession,l,0,NoHit
,,,,,,,17,,2022-01-09_23h11.39.109,MemLear_ses-01_part-02_label-nBack,2020.1.3,Win32,60,"[""d""]",1,[0.8120000000000118],0,85,85,85,1,obsession,d,1,Hit
,,,,,,,17,,2022-01-09_23h11.39.109,MemLear_ses-01_part-02_label-nBack,2020.1.3,Win32,60,"[""d""]",0,[0.9736000000238505],0,86,86,86,1,messy,l,0,NoHit
,,,,,,,17,,2022-01-09_23h11.39.109,MemLear_ses-01_part-02_label-nBack,2020.1.3,Win32,60,"[""d""]",0,[0.6846999999880836],0,87,87,87,1,anger,l,0,NoHit
,,,,,,,17,,2022-01-09_23h11.39.109,MemLear_ses-01_part-02_label-nBack,2020.1.3,Win32,60,"[""d""]",0,[0.78369999998813],0,88,88,88,1,exercise,l,0,NoHit
,,,,,,,17,,2022-01-09_23h11.39.109,MemLear_ses-01_part-02_label-nBack,2020.1.3,Win32,60,"[""l""]",0,[0.6969999999999459],0,89,89,89,1,anger,d,1,Hit
,,,,,,,17,,2022-01-09_23h11.39.109,MemLear_ses-01_part-02_label-nBack,2020.1.3,Win32,60,"[""d""]",0,[0.6838000000118996],0,90,90,90,1,suspicious,l,0,NoHit
,,,,,,,17,,2022-01-09_23h11.39.109,MemLear_ses-01_part-02_label-nBack,2020.1.3,Win32,60,"[""d""]",0,[0.8608000000119205],0,91,91,91,1,politeness,l,0,NoHit
,,,,,,,17,,2022-01-09_23h11.39.109,MemLear_ses-01_part-02_label-nBack,2020.1.3,Win32,60,"[""d""]",1,[0.869800000011935],0,92,92,92,1,suspicious,d,1,Hit
,,,,,,,17,,2022-01-09_23h11.39.109,MemLear_ses-01_part-02_label-nBack,2020.1.3,Win32,60,"[""d""]",0,[1.265699999988101],0,93,93,93,1,shark,l,0,NoHit
,,,,,,,17,,2022-01-09_23h11.39.109,MemLear_ses-01_part-02_label-nBack,2020.1.3,Win32,60,"[""d""]",0,[0.7148999999761827],0,94,94,94,1,detest,l,0,NoHit
,,,,,,,17,,2022-01-09_23h11.39.109,MemLear_ses-01_part-02_label-nBack,2020.1.3,Win32,60,"[""l""]",0,[0.7517000000476628],0,95,95,95,1,shark,d,1,Hit
,,,,,,,17,,2022-01-09_23h11.39.109,MemLear_ses-01_part-02_label-nBack,2020.1.3,Win32,60,"[""d""]",0,[0.5281000000238123],0,96,96,96,1,cash,l,0,NoHit
,,,,,,,17,,2022-01-09_23h11.39.109,MemLear_ses-01_part-02_label-nBack,2020.1.3,Win32,60,"[""d""]",0,[0.7848000000118986],0,97,97,97,1,cancer,l,0,NoHit
,,,,,,,17,,2022-01-09_23h11.39.109,MemLear_ses-01_part-02_label-nBack,2020.1.3,Win32,60,"[""d""]",0,[1.214999999999975],0,98,98,98,1,pistol,l,0,NoHit
,,,,,,,17,,2022-01-09_23h11.39.109,MemLear_ses-01_part-02_label-nBack,2020.1.3,Win32,60,"[""l""]",0,[0.6003999999761618],0,99,99,99,1,cancer,d,1,Hit
