instructions_loop.thisRepN,instructions_loop.thisTrialN,instructions_loop.thisN,instructions_loop.thisIndex,instructions_loop.ran,text1,text2,text3,participant,Expra Code,date,expName,psychopyVersion,OS,frameRate,recog_resp.keys,recog_resp.rt,conf_resp.keys,conf_resp.rt,recog_loop.thisRepN,recog_loop.thisTrialN,recog_loop.thisN,recog_loop.thisIndex,recog_loop.ran,images,modal_categ,type,corr_ans,order,key_resp_break.keys,key_resp_break.rt,list_loop.thisRepN,list_loop.thisTrialN,list_loop.thisN,list_loop.thisIndex,list_loop.ran,recog_list
0,0,0,0,1,Welcome to the last phase of this experiment!,.,Please press the space bar to continue,18,//,2022-01-09_23h25.27.520,MemLear_ses-01_part-02_label-phase2,2020.1.3,Win32,60,,,,,,,,,,,,,,,,,,,,,,
0,1,1,1,1,.,"In this phase, you will see some objects. 

For each object, you should indicate whether you have seen it before during the experiment.

Press LEFT ARROW for YES
Press RIGHT ARROW for NO

",Please press the space bar to continue ,18,//,2022-01-09_23h25.27.520,MemLear_ses-01_part-02_label-phase2,2020.1.3,Win32,60,,,,,,,,,,,,,,,,,,,,,,
,,,,,,,,18,//,2022-01-09_23h25.27.520,MemLear_ses-01_part-02_label-phase2,2020.1.3,Win32,60,right,2.5937,2,1.5135,0,0,0,80,1,stimuli/objects/icecubetray01a.jpg,Kitchen & utensil,new,right,81,,,,,,,,
,,,,,,,,18,//,2022-01-09_23h25.27.520,MemLear_ses-01_part-02_label-phase2,2020.1.3,Win32,60,left,1.0672,3,0.4977,0,1,1,73,1,stimuli/objects/oven.jpg,Kitchen & utensil,old,left,74,,,,,,,,
,,,,,,,,18,//,2022-01-09_23h25.27.520,MemLear_ses-01_part-02_label-phase2,2020.1.3,Win32,60,left,1.1177,4,0.3355,0,2,2,34,1,stimuli/objects/charcoalbarbecue.jpg,Outdoor activity & sport item,old,left,35,,,,,,,,
,,,,,,,,18,//,2022-01-09_23h25.27.520,MemLear_ses-01_part-02_label-phase2,2020.1.3,Win32,60,left,0.9171,4,0.2861,0,3,3,79,1,stimuli/objects/golfbag.jpg,Outdoor activity & sport item,old,left,80,,,,,,,,
,,,,,,,,18,//,2022-01-09_23h25.27.520,MemLear_ses-01_part-02_label-phase2,2020.1.3,Win32,60,left,1.7952,3,0.3174,0,4,4,31,1,stimuli/objects/waterbottle03.jpg,Kitchen & utensil,old,left,32,,,,,,,,
,,,,,,,,18,//,2022-01-09_23h25.27.520,MemLear_ses-01_part-02_label-phase2,2020.1.3,Win32,60,right,3.8134,1,0.878,0,5,5,33,1,stimuli/objects/footballhelmet.jpg,Outdoor activity & sport item,new,right,34,,,,,,,,
,,,,,,,,18,//,2022-01-09_23h25.27.520,MemLear_ses-01_part-02_label-phase2,2020.1.3,Win32,60,right,2.6444,3,0.373,0,6,6,20,1,stimuli/objects/bottleopener01.jpg,Kitchen & utensil,new,right,21,,,,,,,,
,,,,,,,,18,//,2022-01-09_23h25.27.520,MemLear_ses-01_part-02_label-phase2,2020.1.3,Win32,60,right,3.5151,3,0.5306,0,7,7,37,1,stimuli/objects/megaphone.jpg,Electronic device & accessory,new,right,38,,,,,,,,
,,,,,,,,18,//,2022-01-09_23h25.27.520,MemLear_ses-01_part-02_label-phase2,2020.1.3,Win32,60,left,2.6006,4,0.3703,0,8,8,4,1,stimuli/objects/peeler01.jpg,Kitchen & utensil,old,left,5,,,,,,,,
,,,,,,,,18,//,2022-01-09_23h25.27.520,MemLear_ses-01_part-02_label-phase2,2020.1.3,Win32,60,left,3.996,4,0.5943,0,9,9,82,1,stimuli/objects/pitcher02b.jpg,Kitchen & utensil,old,left,83,,,,,,,,
,,,,,,,,18,//,2022-01-09_23h25.27.520,MemLear_ses-01_part-02_label-phase2,2020.1.3,Win32,60,right,1.5804,3,0.3407,0,10,10,21,1,stimuli/objects/ipod.jpg,Electronic device & accessory,old,left,22,,,,,,,,
,,,,,,,,18,//,2022-01-09_23h25.27.520,MemLear_ses-01_part-02_label-phase2,2020.1.3,Win32,60,left,1.7681,4,0.315,0,11,11,54,1,stimuli/objects/painttray.jpg,Hand labour tool & accessory,old,left,55,,,,,,,,
,,,,,,,,18,//,2022-01-09_23h25.27.520,MemLear_ses-01_part-02_label-phase2,2020.1.3,Win32,60,left,1.0039,4,0.1369,0,12,12,52,1,stimuli/objects/swissarmyknife01a.jpg,Hand labour tool & accessory,old,left,53,,,,,,,,
,,,,,,,,18,//,2022-01-09_23h25.27.520,MemLear_ses-01_part-02_label-phase2,2020.1.3,Win32,60,left,1.1116,2,0.3434,0,13,13,59,1,stimuli/objects/wheelbarrow01.jpg,Hand labour tool & accessory,new,right,60,,,,,,,,
,,,,,,,,18,//,2022-01-09_23h25.27.520,MemLear_ses-01_part-02_label-phase2,2020.1.3,Win32,60,right,1.493,3,0.6523,0,14,14,16,1,stimuli/objects/mitresaw.jpg,Hand labour tool & accessory,new,right,17,,,,,,,,
,,,,,,,,18,//,2022-01-09_23h25.27.520,MemLear_ses-01_part-02_label-phase2,2020.1.3,Win32,60,left,1.6621,4,0.3356,0,15,15,71,1,stimuli/objects/scanner.jpg,Electronic device & accessory,old,left,72,,,,,,,,
,,,,,,,,18,//,2022-01-09_23h25.27.520,MemLear_ses-01_part-02_label-phase2,2020.1.3,Win32,60,right,2.9685,2,1.4409,0,16,16,22,1,stimuli/objects/jug.jpg,Kitchen & utensil,new,right,23,,,,,,,,
,,,,,,,,18,//,2022-01-09_23h25.27.520,MemLear_ses-01_part-02_label-phase2,2020.1.3,Win32,60,left,1.4299,4,0.4507,0,17,17,76,1,stimuli/objects/taperecorder.jpg,Electronic device & accessory,old,left,77,,,,,,,,
,,,,,,,,18,//,2022-01-09_23h25.27.520,MemLear_ses-01_part-02_label-phase2,2020.1.3,Win32,60,left,1.3415,2,0.7318,0,18,18,84,1,stimuli/objects/cookingpot.jpg,Kitchen & utensil,old,left,85,,,,,,,,
,,,,,,,,18,//,2022-01-09_23h25.27.520,MemLear_ses-01_part-02_label-phase2,2020.1.3,Win32,60,left,1.6158,4,0.3864,0,19,19,65,1,stimuli/objects/floppydisk02a.jpg,Electronic device & accessory,new,right,66,,,,,,,,
,,,,,,,,18,//,2022-01-09_23h25.27.520,MemLear_ses-01_part-02_label-phase2,2020.1.3,Win32,60,right,2.8445,3,0.91,0,20,20,32,1,stimuli/objects/toasteroven.jpg,Kitchen & utensil,old,left,33,,,,,,,,
,,,,,,,,18,//,2022-01-09_23h25.27.520,MemLear_ses-01_part-02_label-phase2,2020.1.3,Win32,60,left,1.9854,4,0.2848,0,21,21,0,1,stimuli/objects/spatula03.jpg,Kitchen & utensil,old,left,1,,,,,,,,
,,,,,,,,18,//,2022-01-09_23h25.27.520,MemLear_ses-01_part-02_label-phase2,2020.1.3,Win32,60,left,1.0516,3,0.3869,0,22,22,6,1,stimuli/objects/coffeepot03a.jpg,Kitchen & utensil,old,left,7,,,,,,,,
,,,,,,,,18,//,2022-01-09_23h25.27.520,MemLear_ses-01_part-02_label-phase2,2020.1.3,Win32,60,right,3.087,3,0.5896,0,23,23,24,1,stimuli/objects/hockeypuck.jpg,Outdoor activity & sport item,new,right,25,,,,,,,,
,,,,,,,,18,//,2022-01-09_23h25.27.520,MemLear_ses-01_part-02_label-phase2,2020.1.3,Win32,60,left,1.1719,4,0.3338,0,24,24,69,1,stimuli/objects/securitycamera.jpg,Electronic device & accessory,old,left,70,,,,,,,,
,,,,,,,,18,//,2022-01-09_23h25.27.520,MemLear_ses-01_part-02_label-phase2,2020.1.3,Win32,60,left,1.1001,2,0.315,0,25,25,87,1,stimuli/objects/smokedetector02.jpg,Electronic device & accessory,new,right,88,,,,,,,,
,,,,,,,,18,//,2022-01-09_23h25.27.520,MemLear_ses-01_part-02_label-phase2,2020.1.3,Win32,60,left,1.7334,3,0.4557,0,26,26,53,1,stimuli/objects/wafflemaker.jpg,Kitchen & utensil,new,right,54,,,,,,,,
,,,,,,,,18,//,2022-01-09_23h25.27.520,MemLear_ses-01_part-02_label-phase2,2020.1.3,Win32,60,left,1.3758,4,0.2597,0,27,27,66,1,stimuli/objects/chocolatefonduedish.jpg,Kitchen & utensil,old,left,67,,,,,,,,
,,,,,,,,18,//,2022-01-09_23h25.27.520,MemLear_ses-01_part-02_label-phase2,2020.1.3,Win32,60,left,1.4278,4,0.1307,0,28,28,13,1,stimuli/objects/gps.jpg,Electronic device & accessory,old,left,14,,,,,,,,
,,,,,,,,18,//,2022-01-09_23h25.27.520,MemLear_ses-01_part-02_label-phase2,2020.1.3,Win32,60,left,1.0189,3,0.1196,0,29,29,70,1,stimuli/objects/solderingiron.jpg,Hand labour tool & accessory,new,right,71,,,,,,,,
,,,,,,,,18,//,2022-01-09_23h25.27.520,MemLear_ses-01_part-02_label-phase2,2020.1.3,Win32,60,left,2.2464,3,0.0825,0,30,30,62,1,stimuli/objects/cakeplatter.jpg,Kitchen & utensil,old,left,63,,,,,,,,
,,,,,,,,18,//,2022-01-09_23h25.27.520,MemLear_ses-01_part-02_label-phase2,2020.1.3,Win32,60,left,1.5433,4,0.1114,0,31,31,64,1,stimuli/objects/usbcable01a.jpg,Electronic device & accessory,new,right,65,,,,,,,,
,,,,,,,,18,//,2022-01-09_23h25.27.520,MemLear_ses-01_part-02_label-phase2,2020.1.3,Win32,60,left,1.9925,2,0.1819,0,32,32,9,1,stimuli/objects/pot01.jpg,Kitchen & utensil,old,left,10,,,,,,,,
,,,,,,,,18,//,2022-01-09_23h25.27.520,MemLear_ses-01_part-02_label-phase2,2020.1.3,Win32,60,right,0.8502,3,0.3321,0,33,33,3,1,stimuli/objects/cork02.jpg,Kitchen & utensil,new,right,4,,,,,,,,
,,,,,,,,18,//,2022-01-09_23h25.27.520,MemLear_ses-01_part-02_label-phase2,2020.1.3,Win32,60,right,1.1824,3,0.4883,0,34,34,48,1,stimuli/objects/spotlight.jpg,Electronic device & accessory,old,left,49,,,,,,,,
,,,,,,,,18,//,2022-01-09_23h25.27.520,MemLear_ses-01_part-02_label-phase2,2020.1.3,Win32,60,left,0.84,4,0.1613,0,35,35,81,1,stimuli/objects/outletadapter.jpg,Electronic device & accessory,new,right,82,,,,,,,,
,,,,,,,,18,//,2022-01-09_23h25.27.520,MemLear_ses-01_part-02_label-phase2,2020.1.3,Win32,60,right,1.4419,1,0.1225,0,36,36,36,1,stimuli/objects/breadknife.jpg,Kitchen & utensil,old,left,37,,,,,,,,
,,,,,,,,18,//,2022-01-09_23h25.27.520,MemLear_ses-01_part-02_label-phase2,2020.1.3,Win32,60,left,2.0213,4,0.0823,0,37,37,89,1,stimuli/objects/garlicpress02a.jpg,Kitchen & utensil,new,right,90,,,,,,,,
,,,,,,,,18,//,2022-01-09_23h25.27.520,MemLear_ses-01_part-02_label-phase2,2020.1.3,Win32,60,right,0.9992,2,0.7361,0,38,38,45,1,stimuli/objects/cameracase01a.jpg,Electronic device & accessory,old,left,46,,,,,,,,
,,,,,,,,18,//,2022-01-09_23h25.27.520,MemLear_ses-01_part-02_label-phase2,2020.1.3,Win32,60,right,3.3589,2,0.1531,0,39,39,78,1,stimuli/objects/webcam.jpg,Electronic device & accessory,new,right,79,,,,,,,,
,,,,,,,,18,//,2022-01-09_23h25.27.520,MemLear_ses-01_part-02_label-phase2,2020.1.3,Win32,60,left,0.8931,4,0.4467,0,40,40,58,1,stimuli/objects/fishingrod.jpg,Outdoor activity & sport item,new,right,59,,,,,,,,
,,,,,,,,18,//,2022-01-09_23h25.27.520,MemLear_ses-01_part-02_label-phase2,2020.1.3,Win32,60,right,1.5748,2,0.3379,0,41,41,7,1,stimuli/objects/whisk.jpg,Kitchen & utensil,old,left,8,,,,,,,,
,,,,,,,,18,//,2022-01-09_23h25.27.520,MemLear_ses-01_part-02_label-phase2,2020.1.3,Win32,60,left,2.9905,4,0.0009,0,42,42,44,1,stimuli/objects/airconditioner.jpg,Electronic device & accessory,new,right,45,,,,,,,,
,,,,,,,,18,//,2022-01-09_23h25.27.520,MemLear_ses-01_part-02_label-phase2,2020.1.3,Win32,60,left,2.0376,4,0.2176,0,43,43,85,1,stimuli/objects/spicerack.jpg,Kitchen & utensil,old,left,86,,,,,,,,
,,,,,,,,18,//,2022-01-09_23h25.27.520,MemLear_ses-01_part-02_label-phase2,2020.1.3,Win32,60,left,1.6156,3,0.1744,0,44,44,5,1,stimuli/objects/dvdcase01.jpg,Electronic device & accessory,new,right,6,,,,,,,,
,,,,,,,,18,//,2022-01-09_23h25.27.520,MemLear_ses-01_part-02_label-phase2,2020.1.3,Win32,60,left,0.7591,4,0.3593,0,45,45,12,1,stimuli/objects/handmixer01d.jpg,Kitchen & utensil,old,left,13,,,,,,,,
,,,,,,,,18,//,2022-01-09_23h25.27.520,MemLear_ses-01_part-02_label-phase2,2020.1.3,Win32,60,right,1.2408,2,0.3811,0,46,46,67,1,stimuli/objects/knife03.jpg,Kitchen & utensil,old,left,68,,,,,,,,
,,,,,,,,18,//,2022-01-09_23h25.27.520,MemLear_ses-01_part-02_label-phase2,2020.1.3,Win32,60,left,1.4409,4,0.2555,0,47,47,46,1,stimuli/objects/lawnmower.jpg,Hand labour tool & accessory,old,left,47,,,,,,,,
,,,,,,,,18,//,2022-01-09_23h25.27.520,MemLear_ses-01_part-02_label-phase2,2020.1.3,Win32,60,left,0.8518,4,0.4316,0,48,48,8,1,stimuli/objects/cuttingpliers02.jpg,Hand labour tool & accessory,old,left,9,,,,,,,,
,,,,,,,,18,//,2022-01-09_23h25.27.520,MemLear_ses-01_part-02_label-phase2,2020.1.3,Win32,60,left,1.1876,4,0.2506,0,49,49,27,1,stimuli/objects/avcable.jpg,Electronic device & accessory,old,left,28,,,,,,,,
,,,,,,,,18,//,2022-01-09_23h25.27.520,MemLear_ses-01_part-02_label-phase2,2020.1.3,Win32,60,right,0.852,4,0.4035,0,50,50,25,1,stimuli/objects/espressomachine.jpg,Kitchen & utensil,new,right,26,,,,,,,,
,,,,,,,,18,//,2022-01-09_23h25.27.520,MemLear_ses-01_part-02_label-phase2,2020.1.3,Win32,60,left,0.9724,2,0.5052,0,51,51,35,1,stimuli/objects/alarmclock01.jpg,Electronic device & accessory,new,right,36,,,,,,,,
,,,,,,,,18,//,2022-01-09_23h25.27.520,MemLear_ses-01_part-02_label-phase2,2020.1.3,Win32,60,left,3.09,4,0.2466,0,52,52,28,1,stimuli/objects/microphone01.jpg,Electronic device & accessory,new,right,29,,,,,,,,
,,,,,,,,18,//,2022-01-09_23h25.27.520,MemLear_ses-01_part-02_label-phase2,2020.1.3,Win32,60,right,1.2101,4,0.2542,0,53,53,57,1,stimuli/objects/icebucket.jpg,Kitchen & utensil,old,left,58,,,,,,,,
,,,,,,,,18,//,2022-01-09_23h25.27.520,MemLear_ses-01_part-02_label-phase2,2020.1.3,Win32,60,left,1.9708,4,0.0853,0,54,54,10,1,stimuli/objects/desktopcomputer.jpg,Electronic device & accessory,old,left,11,,,,,,,,
,,,,,,,,18,//,2022-01-09_23h25.27.520,MemLear_ses-01_part-02_label-phase2,2020.1.3,Win32,60,left,0.9845,2,0.1987,0,55,55,42,1,stimuli/objects/dishrack.jpg,Kitchen & utensil,old,left,43,,,,,,,,
,,,,,,,,18,//,2022-01-09_23h25.27.520,MemLear_ses-01_part-02_label-phase2,2020.1.3,Win32,60,left,0.6593,4,0.2328,0,56,56,29,1,stimuli/objects/extensioncord.jpg,Electronic device & accessory,old,left,30,,,,,,,,
,,,,,,,,18,//,2022-01-09_23h25.27.520,MemLear_ses-01_part-02_label-phase2,2020.1.3,Win32,60,left,0.7269,4,0.139,0,57,57,39,1,stimuli/objects/phonejack.jpg,Electronic device & accessory,old,left,40,,,,,,,,
,,,,,,,,18,//,2022-01-09_23h25.27.520,MemLear_ses-01_part-02_label-phase2,2020.1.3,Win32,60,left,1.0042,1,0.1468,0,58,58,77,1,stimuli/objects/snowshovel.jpg,Hand labour tool & accessory,old,left,78,,,,,,,,
,,,,,,,,18,//,2022-01-09_23h25.27.520,MemLear_ses-01_part-02_label-phase2,2020.1.3,Win32,60,left,1.1284,2,0.3723,0,59,59,60,1,stimuli/objects/swimgoggles.jpg,Outdoor activity & sport item,old,left,61,,,,,,,,
,,,,,,,,18,//,2022-01-09_23h25.27.520,MemLear_ses-01_part-02_label-phase2,2020.1.3,Win32,60,left,1.3326,2,0.2486,0,60,60,15,1,stimuli/objects/hockeygoaliemask.jpg,Outdoor activity & sport item,new,right,16,,,,,,,,
,,,,,,,,18,//,2022-01-09_23h25.27.520,MemLear_ses-01_part-02_label-phase2,2020.1.3,Win32,60,left,0.8972,4,0.1254,0,61,61,86,1,stimuli/objects/camera01a.jpg,Electronic device & accessory,old,left,87,,,,,,,,
,,,,,,,,18,//,2022-01-09_23h25.27.520,MemLear_ses-01_part-02_label-phase2,2020.1.3,Win32,60,left,0.7734,4,0.2325,0,62,62,47,1,stimuli/objects/photocopier.jpg,Electronic device & accessory,old,left,48,,,,,,,,
,,,,,,,,18,//,2022-01-09_23h25.27.520,MemLear_ses-01_part-02_label-phase2,2020.1.3,Win32,60,right,0.8652,4,0.2666,0,63,63,2,1,stimuli/objects/podium.jpg,Outdoor activity & sport item,old,left,3,,,,,,,,
,,,,,,,,18,//,2022-01-09_23h25.27.520,MemLear_ses-01_part-02_label-phase2,2020.1.3,Win32,60,left,1.2003,2,0.1295,0,64,64,1,1,stimuli/objects/walkietalkie.jpg,Electronic device & accessory,old,left,2,,,,,,,,
,,,,,,,,18,//,2022-01-09_23h25.27.520,MemLear_ses-01_part-02_label-phase2,2020.1.3,Win32,60,left,0.8484,4,0.0776,0,65,65,14,1,stimuli/objects/potatomasher03b.jpg,Kitchen & utensil,old,left,15,,,,,,,,
,,,,,,,,18,//,2022-01-09_23h25.27.520,MemLear_ses-01_part-02_label-phase2,2020.1.3,Win32,60,left,1.0451,3,0.2847,0,66,66,11,1,stimuli/objects/bikepump01.jpg,Outdoor activity & sport item,old,left,12,,,,,,,,
,,,,,,,,18,//,2022-01-09_23h25.27.520,MemLear_ses-01_part-02_label-phase2,2020.1.3,Win32,60,right,1.7451,3,0.8161,0,67,67,63,1,stimuli/objects/carantenna.jpg,Electronic device & accessory,old,left,64,,,,,,,,
,,,,,,,,18,//,2022-01-09_23h25.27.520,MemLear_ses-01_part-02_label-phase2,2020.1.3,Win32,60,left,3.1451,2,0.1546,0,68,68,26,1,stimuli/objects/remotecontrol04.jpg,Electronic device & accessory,old,left,27,,,,,,,,
,,,,,,,,18,//,2022-01-09_23h25.27.520,MemLear_ses-01_part-02_label-phase2,2020.1.3,Win32,60,right,1.0529,3,0.1857,0,69,69,43,1,stimuli/objects/tripod01.jpg,Electronic device & accessory,new,right,44,,,,,,,,
,,,,,,,,18,//,2022-01-09_23h25.27.520,MemLear_ses-01_part-02_label-phase2,2020.1.3,Win32,60,left,0.7934,4,0.1193,0,70,70,88,1,stimuli/objects/fonduefork01.jpg,Kitchen & utensil,old,left,89,,,,,,,,
,,,,,,,,18,//,2022-01-09_23h25.27.520,MemLear_ses-01_part-02_label-phase2,2020.1.3,Win32,60,left,1.1704,3,0.1407,0,71,71,83,1,stimuli/objects/strainer01b.jpg,Kitchen & utensil,new,right,84,,,,,,,,
,,,,,,,,18,//,2022-01-09_23h25.27.520,MemLear_ses-01_part-02_label-phase2,2020.1.3,Win32,60,right,0.9438,4,0.2156,0,72,72,40,1,stimuli/objects/surfboard.jpg,Outdoor activity & sport item,old,left,41,,,,,,,,
,,,,,,,,18,//,2022-01-09_23h25.27.520,MemLear_ses-01_part-02_label-phase2,2020.1.3,Win32,60,left,0.7879,4,0.015,0,73,73,19,1,stimuli/objects/alarmsystem.jpg,Electronic device & accessory,old,left,20,,,,,,,,
,,,,,,,,18,//,2022-01-09_23h25.27.520,MemLear_ses-01_part-02_label-phase2,2020.1.3,Win32,60,left,0.6227,4,0.0612,0,74,74,41,1,stimuli/objects/electricoutlet.jpg,Electronic device & accessory,old,left,42,,,,,,,,
,,,,,,,,18,//,2022-01-09_23h25.27.520,MemLear_ses-01_part-02_label-phase2,2020.1.3,Win32,60,right,1.5488,2,0.3812,0,75,75,23,1,stimuli/objects/foodprocessor.jpg,Kitchen & utensil,new,right,24,,,,,,,,
,,,,,,,,18,//,2022-01-09_23h25.27.520,MemLear_ses-01_part-02_label-phase2,2020.1.3,Win32,60,left,0.6546,4,0.0933,0,76,76,74,1,stimuli/objects/fan.jpg,Electronic device & accessory,new,right,75,,,,,,,,
,,,,,,,,18,//,2022-01-09_23h25.27.520,MemLear_ses-01_part-02_label-phase2,2020.1.3,Win32,60,left,0.7463,4,0.1493,0,77,77,50,1,stimuli/objects/cellphone.jpg,Electronic device & accessory,new,right,51,,,,,,,,
,,,,,,,,18,//,2022-01-09_23h25.27.520,MemLear_ses-01_part-02_label-phase2,2020.1.3,Win32,60,left,0.6444,3,0.2645,0,78,78,30,1,stimuli/objects/videocamera01a.jpg,Electronic device & accessory,old,left,31,,,,,,,,
,,,,,,,,18,//,2022-01-09_23h25.27.520,MemLear_ses-01_part-02_label-phase2,2020.1.3,Win32,60,left,2.0473,2,0.108,0,79,79,61,1,stimuli/objects/chandelier.jpg,Electronic device & accessory,old,left,62,,,,,,,,
,,,,,,,,18,//,2022-01-09_23h25.27.520,MemLear_ses-01_part-02_label-phase2,2020.1.3,Win32,60,left,1.9551,2,0.1185,0,80,80,38,1,stimuli/objects/bowl02a.jpg,Kitchen & utensil,old,left,39,,,,,,,,
,,,,,,,,18,//,2022-01-09_23h25.27.520,MemLear_ses-01_part-02_label-phase2,2020.1.3,Win32,60,left,2.1054,3,0.2938,0,81,81,72,1,stimuli/objects/coffeemaker.jpg,Kitchen & utensil,old,left,73,,,,,,,,
,,,,,,,,18,//,2022-01-09_23h25.27.520,MemLear_ses-01_part-02_label-phase2,2020.1.3,Win32,60,left,0.8521,4,0.0011,0,82,82,55,1,stimuli/objects/expansioncard.jpg,Electronic device & accessory,old,left,56,,,,,,,,
,,,,,,,,18,//,2022-01-09_23h25.27.520,MemLear_ses-01_part-02_label-phase2,2020.1.3,Win32,60,right,1.6999,2,0.6206,0,83,83,17,1,stimuli/objects/jack.jpg,Electronic device & accessory,old,left,18,,,,,,,,
,,,,,,,,18,//,2022-01-09_23h25.27.520,MemLear_ses-01_part-02_label-phase2,2020.1.3,Win32,60,right,0.8385,3,0.4974,0,84,84,18,1,stimuli/objects/fanblades.jpg,Electronic device & accessory,new,right,19,,,,,,,,
,,,,,,,,18,//,2022-01-09_23h25.27.520,MemLear_ses-01_part-02_label-phase2,2020.1.3,Win32,60,right,1.1339,2,0.2501,0,85,85,51,1,stimuli/objects/tupperware03a.jpg,Kitchen & utensil,old,left,52,,,,,,,,
,,,,,,,,18,//,2022-01-09_23h25.27.520,MemLear_ses-01_part-02_label-phase2,2020.1.3,Win32,60,right,0.6874,1,0.3094,0,86,86,75,1,stimuli/objects/styrofoamcup.jpg,Kitchen & utensil,new,right,76,,,,,,,,
,,,,,,,,18,//,2022-01-09_23h25.27.520,MemLear_ses-01_part-02_label-phase2,2020.1.3,Win32,60,left,1.5905,2,0.3164,0,87,87,56,1,stimuli/objects/backpack01a.jpg,Outdoor activity & sport item,old,left,57,,,,,,,,
,,,,,,,,18,//,2022-01-09_23h25.27.520,MemLear_ses-01_part-02_label-phase2,2020.1.3,Win32,60,right,2.2854,2,0.9066,0,88,88,68,1,stimuli/objects/icepack.jpg,Kitchen & utensil,old,left,69,,,,,,,,
,,,,,,,,18,//,2022-01-09_23h25.27.520,MemLear_ses-01_part-02_label-phase2,2020.1.3,Win32,60,left,0.9978,2,0.7515,0,89,89,49,1,stimuli/objects/cashregister01.jpg,Electronic device & accessory,old,left,50,,,,,,,,
,,,,,,,,18,//,2022-01-09_23h25.27.520,MemLear_ses-01_part-02_label-phase2,2020.1.3,Win32,60,,,,,,,,,,,,,,,space,222.9749,0,0,0,0,1,condition_files/ImagesforRecog3_1.csv
,,,,,,,,18,//,2022-01-09_23h25.27.520,MemLear_ses-01_part-02_label-phase2,2020.1.3,Win32,60,right,1.7643,2,0.5744,0,0,0,42,1,stimuli/objects/peppermill02b.jpg,Kitchen & utensil,old,left,133,,,,,,,,
,,,,,,,,18,//,2022-01-09_23h25.27.520,MemLear_ses-01_part-02_label-phase2,2020.1.3,Win32,60,right,1.2199,3,0.0856,0,1,1,9,1,stimuli/objects/funnel.jpg,Kitchen & utensil,old,left,100,,,,,,,,
,,,,,,,,18,//,2022-01-09_23h25.27.520,MemLear_ses-01_part-02_label-phase2,2020.1.3,Win32,60,left,0.8854,2,1.1914,0,2,2,55,1,stimuli/objects/shovel01.jpg,Hand labour tool & accessory,new,right,146,,,,,,,,
,,,,,,,,18,//,2022-01-09_23h25.27.520,MemLear_ses-01_part-02_label-phase2,2020.1.3,Win32,60,left,1.0343,4,0.1238,0,3,3,19,1,stimuli/objects/minifridge.jpg,Kitchen & utensil,old,left,110,,,,,,,,
,,,,,,,,18,//,2022-01-09_23h25.27.520,MemLear_ses-01_part-02_label-phase2,2020.1.3,Win32,60,left,1.0228,3,0.2859,0,4,4,77,1,stimuli/objects/saltshaker03a.jpg,Kitchen & utensil,old,left,168,,,,,,,,
,,,,,,,,18,//,2022-01-09_23h25.27.520,MemLear_ses-01_part-02_label-phase2,2020.1.3,Win32,60,left,0.9245,4,0.185,0,5,5,6,1,stimuli/objects/battery02b.jpg,Electronic device & accessory,old,left,97,,,,,,,,
,,,,,,,,18,//,2022-01-09_23h25.27.520,MemLear_ses-01_part-02_label-phase2,2020.1.3,Win32,60,left,1.4107,4,0.0872,0,6,6,50,1,stimuli/objects/soundmixer.jpg,Electronic device & accessory,old,left,141,,,,,,,,
,,,,,,,,18,//,2022-01-09_23h25.27.520,MemLear_ses-01_part-02_label-phase2,2020.1.3,Win32,60,left,0.7784,4,0.1457,0,7,7,84,1,stimuli/objects/cowbell.jpg,Kitchen & utensil,old,left,175,,,,,,,,
,,,,,,,,18,//,2022-01-09_23h25.27.520,MemLear_ses-01_part-02_label-phase2,2020.1.3,Win32,60,right,1.0479,2,0.2866,0,8,8,35,1,stimuli/objects/knifesharpener.jpg,Hand labour tool & accessory,old,left,126,,,,,,,,
,,,,,,,,18,//,2022-01-09_23h25.27.520,MemLear_ses-01_part-02_label-phase2,2020.1.3,Win32,60,left,1.221,4,0.2191,0,9,9,7,1,stimuli/objects/bottlecap.jpg,Kitchen & utensil,old,left,98,,,,,,,,
,,,,,,,,18,//,2022-01-09_23h25.27.520,MemLear_ses-01_part-02_label-phase2,2020.1.3,Win32,60,right,1.0431,2,0.4271,0,10,10,5,1,stimuli/objects/cutleryset.jpg,Kitchen & utensil,new,right,96,,,,,,,,
,,,,,,,,18,//,2022-01-09_23h25.27.520,MemLear_ses-01_part-02_label-phase2,2020.1.3,Win32,60,left,1.3483,4,0.1497,0,11,11,27,1,stimuli/objects/muffintray01.jpg,Kitchen & utensil,old,left,118,,,,,,,,
,,,,,,,,18,//,2022-01-09_23h25.27.520,MemLear_ses-01_part-02_label-phase2,2020.1.3,Win32,60,left,1.5566,3,0.3179,0,12,12,76,1,stimuli/objects/kitchenscale01a.jpg,Kitchen & utensil,old,left,167,,,,,,,,
,,,,,,,,18,//,2022-01-09_23h25.27.520,MemLear_ses-01_part-02_label-phase2,2020.1.3,Win32,60,right,1.689,4,0.3903,0,13,13,3,1,stimuli/objects/butterdish.jpg,Kitchen & utensil,new,right,94,,,,,,,,
,,,,,,,,18,//,2022-01-09_23h25.27.520,MemLear_ses-01_part-02_label-phase2,2020.1.3,Win32,60,right,1.3286,4,0.3531,0,14,14,47,1,stimuli/objects/grill.jpg,Kitchen & utensil,old,left,138,,,,,,,,
,,,,,,,,18,//,2022-01-09_23h25.27.520,MemLear_ses-01_part-02_label-phase2,2020.1.3,Win32,60,left,1.8432,4,0.1527,0,15,15,66,1,stimuli/objects/coffeemachine.jpg,Electronic device & accessory,old,left,157,,,,,,,,
,,,,,,,,18,//,2022-01-09_23h25.27.520,MemLear_ses-01_part-02_label-phase2,2020.1.3,Win32,60,right,1.4678,4,0.3304,0,16,16,20,1,stimuli/objects/ramekin01.jpg,Kitchen & utensil,old,left,111,,,,,,,,
,,,,,,,,18,//,2022-01-09_23h25.27.520,MemLear_ses-01_part-02_label-phase2,2020.1.3,Win32,60,left,2.2501,4,0.3145,0,17,17,70,1,stimuli/objects/cuttingboard.jpg,Kitchen & utensil,old,left,161,,,,,,,,
,,,,,,,,18,//,2022-01-09_23h25.27.520,MemLear_ses-01_part-02_label-phase2,2020.1.3,Win32,60,right,2.9388,2,0.3827,0,18,18,26,1,stimuli/objects/umbrella04.jpg,Outdoor activity & sport item,old,left,117,,,,,,,,
,,,,,,,,18,//,2022-01-09_23h25.27.520,MemLear_ses-01_part-02_label-phase2,2020.1.3,Win32,60,left,4.8882,3,0.3765,0,19,19,53,1,stimuli/objects/squeegee01b.jpg,Hand labour tool & accessory,old,left,144,,,,,,,,
,,,,,,,,18,//,2022-01-09_23h25.27.520,MemLear_ses-01_part-02_label-phase2,2020.1.3,Win32,60,right,1.4027,3,0.9078,0,20,20,10,1,stimuli/objects/snowshoe.jpg,Outdoor activity & sport item,old,left,101,,,,,,,,
,,,,,,,,18,//,2022-01-09_23h25.27.520,MemLear_ses-01_part-02_label-phase2,2020.1.3,Win32,60,left,2.8837,4,0.3265,0,21,21,86,1,stimuli/objects/audiocablesplitter.jpg,Electronic device & accessory,old,left,177,,,,,,,,
,,,,,,,,18,//,2022-01-09_23h25.27.520,MemLear_ses-01_part-02_label-phase2,2020.1.3,Win32,60,right,1.2025,3,0.3905,0,22,22,12,1,stimuli/objects/hourglass.jpg,Kitchen & utensil,new,right,103,,,,,,,,
,,,,,,,,18,//,2022-01-09_23h25.27.520,MemLear_ses-01_part-02_label-phase2,2020.1.3,Win32,60,left,2.4406,4,0.137,0,23,23,68,1,stimuli/objects/usbkey.jpg,Electronic device & accessory,old,left,159,,,,,,,,
,,,,,,,,18,//,2022-01-09_23h25.27.520,MemLear_ses-01_part-02_label-phase2,2020.1.3,Win32,60,left,1.3509,4,0.3015,0,24,24,59,1,stimuli/objects/caulking.jpg,Hand labour tool & accessory,old,left,150,,,,,,,,
,,,,,,,,18,//,2022-01-09_23h25.27.520,MemLear_ses-01_part-02_label-phase2,2020.1.3,Win32,60,left,2.035,4,0.2434,0,25,25,41,1,stimuli/objects/papershredder.jpg,Electronic device & accessory,new,right,132,,,,,,,,
,,,,,,,,18,//,2022-01-09_23h25.27.520,MemLear_ses-01_part-02_label-phase2,2020.1.3,Win32,60,left,1.1131,4,0.5725,0,26,26,71,1,stimuli/objects/antenna.jpg,Electronic device & accessory,new,right,162,,,,,,,,
,,,,,,,,18,//,2022-01-09_23h25.27.520,MemLear_ses-01_part-02_label-phase2,2020.1.3,Win32,60,left,1.4587,4,0.3702,0,27,27,75,1,stimuli/objects/walkman.jpg,Electronic device & accessory,old,left,166,,,,,,,,
,,,,,,,,18,//,2022-01-09_23h25.27.520,MemLear_ses-01_part-02_label-phase2,2020.1.3,Win32,60,right,1.3523,3,0.7369,0,28,28,74,1,stimuli/objects/filmroll.jpg,Electronic device & accessory,old,left,165,,,,,,,,
,,,,,,,,18,//,2022-01-09_23h25.27.520,MemLear_ses-01_part-02_label-phase2,2020.1.3,Win32,60,left,1.5446,4,0.413,0,29,29,67,1,stimuli/objects/wire.jpg,Electronic device & accessory,new,right,158,,,,,,,,
,,,,,,,,18,//,2022-01-09_23h25.27.520,MemLear_ses-01_part-02_label-phase2,2020.1.3,Win32,60,left,0.7412,4,0.3423,0,30,30,44,1,stimuli/objects/spatula04.jpg,Kitchen & utensil,old,left,135,,,,,,,,
,,,,,,,,18,//,2022-01-09_23h25.27.520,MemLear_ses-01_part-02_label-phase2,2020.1.3,Win32,60,left,1.5192,4,0.193,0,31,31,30,1,stimuli/objects/lectern01.jpg,Electronic device & accessory,old,left,121,,,,,,,,
,,,,,,,,18,//,2022-01-09_23h25.27.520,MemLear_ses-01_part-02_label-phase2,2020.1.3,Win32,60,left,1.0155,4,0.3492,0,32,32,40,1,stimuli/objects/fridge.jpg,Kitchen & utensil,old,left,131,,,,,,,,
,,,,,,,,18,//,2022-01-09_23h25.27.520,MemLear_ses-01_part-02_label-phase2,2020.1.3,Win32,60,left,1.3891,4,0.0011,0,33,33,28,1,stimuli/objects/ladder.jpg,Hand labour tool & accessory,new,right,119,,,,,,,,
,,,,,,,,18,//,2022-01-09_23h25.27.520,MemLear_ses-01_part-02_label-phase2,2020.1.3,Win32,60,right,1.3267,3,0.4242,0,34,34,73,1,stimuli/objects/gravyboat.jpg,Kitchen & utensil,new,right,164,,,,,,,,
,,,,,,,,18,//,2022-01-09_23h25.27.520,MemLear_ses-01_part-02_label-phase2,2020.1.3,Win32,60,right,3.5103,2,0.7154,0,35,35,25,1,stimuli/objects/aluminiumfoil.jpg,Kitchen & utensil,new,right,116,,,,,,,,
,,,,,,,,18,//,2022-01-09_23h25.27.520,MemLear_ses-01_part-02_label-phase2,2020.1.3,Win32,60,right,1.9982,3,0.2851,0,36,36,0,1,stimuli/objects/screwdriver04b.jpg,Hand labour tool & accessory,new,right,91,,,,,,,,
,,,,,,,,18,//,2022-01-09_23h25.27.520,MemLear_ses-01_part-02_label-phase2,2020.1.3,Win32,60,left,1.5542,4,0.6389,0,37,37,58,1,stimuli/objects/toaster01.jpg,Kitchen & utensil,new,right,149,,,,,,,,
,,,,,,,,18,//,2022-01-09_23h25.27.520,MemLear_ses-01_part-02_label-phase2,2020.1.3,Win32,60,left,1.4106,4,0.3077,0,38,38,64,1,stimuli/objects/cassettetape01a.jpg,Electronic device & accessory,new,right,155,,,,,,,,
,,,,,,,,18,//,2022-01-09_23h25.27.520,MemLear_ses-01_part-02_label-phase2,2020.1.3,Win32,60,right,1.5344,3,0.3709,0,39,39,87,1,stimuli/objects/beachumbrella01.jpg,Outdoor activity & sport item,old,left,178,,,,,,,,
,,,,,,,,18,//,2022-01-09_23h25.27.520,MemLear_ses-01_part-02_label-phase2,2020.1.3,Win32,60,left,0.8256,4,0.2849,0,40,40,72,1,stimuli/objects/cleaver01.jpg,Kitchen & utensil,old,left,163,,,,,,,,
,,,,,,,,18,//,2022-01-09_23h25.27.520,MemLear_ses-01_part-02_label-phase2,2020.1.3,Win32,60,right,0.9825,2,1.7539,0,41,41,17,1,stimuli/objects/toyhockeystick01.jpg,Outdoor activity & sport item,old,left,108,,,,,,,,
,,,,,,,,18,//,2022-01-09_23h25.27.520,MemLear_ses-01_part-02_label-phase2,2020.1.3,Win32,60,left,0.9753,3,0.0939,0,42,42,61,1,stimuli/objects/nutcracker01.jpg,Kitchen & utensil,new,right,152,,,,,,,,
,,,,,,,,18,//,2022-01-09_23h25.27.520,MemLear_ses-01_part-02_label-phase2,2020.1.3,Win32,60,right,2.2808,3,0.3936,0,43,43,11,1,stimuli/objects/studiolight.jpg,Electronic device & accessory,new,right,102,,,,,,,,
,,,,,,,,18,//,2022-01-09_23h25.27.520,MemLear_ses-01_part-02_label-phase2,2020.1.3,Win32,60,left,2.244,4,0.1364,0,44,44,52,1,stimuli/objects/tablesaw.jpg,Hand labour tool & accessory,old,left,143,,,,,,,,
,,,,,,,,18,//,2022-01-09_23h25.27.520,MemLear_ses-01_part-02_label-phase2,2020.1.3,Win32,60,right,0.9688,2,0.3005,0,45,45,82,1,stimuli/objects/thermos.jpg,Kitchen & utensil,new,right,173,,,,,,,,
,,,,,,,,18,//,2022-01-09_23h25.27.520,MemLear_ses-01_part-02_label-phase2,2020.1.3,Win32,60,left,2.3602,3,0.2424,0,46,46,15,1,stimuli/objects/faxmachine.jpg,Electronic device & accessory,old,left,106,,,,,,,,
,,,,,,,,18,//,2022-01-09_23h25.27.520,MemLear_ses-01_part-02_label-phase2,2020.1.3,Win32,60,right,0.8566,3,0.7971,0,47,47,78,1,stimuli/objects/satellitedish01.jpg,Electronic device & accessory,new,right,169,,,,,,,,
,,,,,,,,18,//,2022-01-09_23h25.27.520,MemLear_ses-01_part-02_label-phase2,2020.1.3,Win32,60,left,0.8882,4,0.3454,0,48,48,38,1,stimuli/objects/payphone.jpg,Electronic device & accessory,old,left,129,,,,,,,,
,,,,,,,,18,//,2022-01-09_23h25.27.520,MemLear_ses-01_part-02_label-phase2,2020.1.3,Win32,60,left,0.6909,4,0.426,0,49,49,16,1,stimuli/objects/pastaspoon.jpg,Kitchen & utensil,old,left,107,,,,,,,,
,,,,,,,,18,//,2022-01-09_23h25.27.520,MemLear_ses-01_part-02_label-phase2,2020.1.3,Win32,60,left,0.7176,4,1.1987,0,50,50,54,1,stimuli/objects/ethernetcable02.jpg,Electronic device & accessory,new,right,145,,,,,,,,
,,,,,,,,18,//,2022-01-09_23h25.27.520,MemLear_ses-01_part-02_label-phase2,2020.1.3,Win32,60,right,0.8982,1,0.821,0,51,51,1,1,stimuli/objects/stovetop.jpg,Kitchen & utensil,new,right,92,,,,,,,,
,,,,,,,,18,//,2022-01-09_23h25.27.520,MemLear_ses-01_part-02_label-phase2,2020.1.3,Win32,60,left,0.8539,4,0.0513,0,52,52,88,1,stimuli/objects/nintendods.jpg,Electronic device & accessory,old,left,179,,,,,,,,
,,,,,,,,18,//,2022-01-09_23h25.27.520,MemLear_ses-01_part-02_label-phase2,2020.1.3,Win32,60,left,1.8724,4,0.6356,0,53,53,80,1,stimuli/objects/adjustablewrench01b.jpg,Hand labour tool & accessory,old,left,171,,,,,,,,
,,,,,,,,18,//,2022-01-09_23h25.27.520,MemLear_ses-01_part-02_label-phase2,2020.1.3,Win32,60,left,1.2085,4,0.2386,0,54,54,48,1,stimuli/objects/heatpump.jpg,Electronic device & accessory,old,left,139,,,,,,,,
,,,,,,,,18,//,2022-01-09_23h25.27.520,MemLear_ses-01_part-02_label-phase2,2020.1.3,Win32,60,left,0.8802,4,0.4195,0,55,55,51,1,stimuli/objects/computerkeyboard02.jpg,Electronic device & accessory,old,left,142,,,,,,,,
,,,,,,,,18,//,2022-01-09_23h25.27.520,MemLear_ses-01_part-02_label-phase2,2020.1.3,Win32,60,left,1.2129,4,0.2986,0,56,56,39,1,stimuli/objects/printer02.jpg,Electronic device & accessory,new,right,130,,,,,,,,
,,,,,,,,18,//,2022-01-09_23h25.27.520,MemLear_ses-01_part-02_label-phase2,2020.1.3,Win32,60,right,1.8119,2,0.8071,0,57,57,69,1,stimuli/objects/filmnegative.jpg,Electronic device & accessory,old,left,160,,,,,,,,
,,,,,,,,18,//,2022-01-09_23h25.27.520,MemLear_ses-01_part-02_label-phase2,2020.1.3,Win32,60,right,1.1636,3,0.198,0,58,58,46,1,stimuli/objects/tableknife02.jpg,Kitchen & utensil,new,right,137,,,,,,,,
,,,,,,,,18,//,2022-01-09_23h25.27.520,MemLear_ses-01_part-02_label-phase2,2020.1.3,Win32,60,left,0.8068,3,0.3431,0,59,59,2,1,stimuli/objects/speaker04.jpg,Electronic device & accessory,new,right,93,,,,,,,,
,,,,,,,,18,//,2022-01-09_23h25.27.520,MemLear_ses-01_part-02_label-phase2,2020.1.3,Win32,60,right,0.9788,3,1.4663,0,60,60,83,1,stimuli/objects/fuse.jpg,Electronic device & accessory,new,right,174,,,,,,,,
,,,,,,,,18,//,2022-01-09_23h25.27.520,MemLear_ses-01_part-02_label-phase2,2020.1.3,Win32,60,left,0.86,1,0.8614,0,61,61,33,1,stimuli/objects/telephone01b.jpg,Electronic device & accessory,old,left,124,,,,,,,,
,,,,,,,,18,//,2022-01-09_23h25.27.520,MemLear_ses-01_part-02_label-phase2,2020.1.3,Win32,60,right,1.1056,2,0.4571,0,62,62,65,1,stimuli/objects/boltcutter.jpg,Hand labour tool & accessory,old,left,156,,,,,,,,
,,,,,,,,18,//,2022-01-09_23h25.27.520,MemLear_ses-01_part-02_label-phase2,2020.1.3,Win32,60,left,0.7833,4,0.1827,0,63,63,60,1,stimuli/objects/servingspoon01.jpg,Kitchen & utensil,old,left,151,,,,,,,,
,,,,,,,,18,//,2022-01-09_23h25.27.520,MemLear_ses-01_part-02_label-phase2,2020.1.3,Win32,60,left,0.9226,4,0.4659,0,64,64,13,1,stimuli/objects/freezer02.jpg,Kitchen & utensil,old,left,104,,,,,,,,
,,,,,,,,18,//,2022-01-09_23h25.27.520,MemLear_ses-01_part-02_label-phase2,2020.1.3,Win32,60,right,0.9131,2,0.5016,0,65,65,36,1,stimuli/objects/wateringcan.jpg,Hand labour tool & accessory,old,left,127,,,,,,,,
,,,,,,,,18,//,2022-01-09_23h25.27.520,MemLear_ses-01_part-02_label-phase2,2020.1.3,Win32,60,right,1.0661,2,0.2996,0,66,66,85,1,stimuli/objects/fork03c.jpg,Kitchen & utensil,old,left,176,,,,,,,,
,,,,,,,,18,//,2022-01-09_23h25.27.520,MemLear_ses-01_part-02_label-phase2,2020.1.3,Win32,60,left,0.951,4,0.0618,0,67,67,62,1,stimuli/objects/kneepad01c.jpg,Outdoor activity & sport item,old,left,153,,,,,,,,
,,,,,,,,18,//,2022-01-09_23h25.27.520,MemLear_ses-01_part-02_label-phase2,2020.1.3,Win32,60,right,0.8221,3,0.1834,0,68,68,57,1,stimuli/objects/radio01.jpg,Electronic device & accessory,old,left,148,,,,,,,,
,,,,,,,,18,//,2022-01-09_23h25.27.520,MemLear_ses-01_part-02_label-phase2,2020.1.3,Win32,60,left,2.6495,4,0.064,0,69,69,4,1,stimuli/objects/lightswitch01.jpg,Electronic device & accessory,old,left,95,,,,,,,,
,,,,,,,,18,//,2022-01-09_23h25.27.520,MemLear_ses-01_part-02_label-phase2,2020.1.3,Win32,60,right,0.6785,2,0.1345,0,70,70,43,1,stimuli/objects/lightbulb01.jpg,Electronic device & accessory,old,left,134,,,,,,,,
,,,,,,,,18,//,2022-01-09_23h25.27.520,MemLear_ses-01_part-02_label-phase2,2020.1.3,Win32,60,left,1.4098,3,0.4161,0,71,71,81,1,stimuli/objects/wiicontroller.jpg,Electronic device & accessory,old,left,172,,,,,,,,
,,,,,,,,18,//,2022-01-09_23h25.27.520,MemLear_ses-01_part-02_label-phase2,2020.1.3,Win32,60,left,0.7238,4,0.2085,0,72,72,37,1,stimuli/objects/powercable.jpg,Electronic device & accessory,old,left,128,,,,,,,,
,,,,,,,,18,//,2022-01-09_23h25.27.520,MemLear_ses-01_part-02_label-phase2,2020.1.3,Win32,60,left,1.1938,2,0.1561,0,73,73,56,1,stimuli/objects/hockeygoaliepad.jpg,Outdoor activity & sport item,new,right,147,,,,,,,,
,,,,,,,,18,//,2022-01-09_23h25.27.520,MemLear_ses-01_part-02_label-phase2,2020.1.3,Win32,60,right,0.6579,4,0.2656,0,74,74,29,1,stimuli/objects/beermug01a.jpg,Kitchen & utensil,old,left,120,,,,,,,,
,,,,,,,,18,//,2022-01-09_23h25.27.520,MemLear_ses-01_part-02_label-phase2,2020.1.3,Win32,60,right,0.9121,3,0.2465,0,75,75,32,1,stimuli/objects/canister.jpg,Kitchen & utensil,old,left,123,,,,,,,,
,,,,,,,,18,//,2022-01-09_23h25.27.520,MemLear_ses-01_part-02_label-phase2,2020.1.3,Win32,60,right,0.8771,2,0.318,0,76,76,14,1,stimuli/objects/contactlens.jpg,Kitchen & utensil,new,right,105,,,,,,,,
,,,,,,,,18,//,2022-01-09_23h25.27.520,MemLear_ses-01_part-02_label-phase2,2020.1.3,Win32,60,left,0.9655,2,0.4337,0,77,77,23,1,stimuli/objects/blender.jpg,Kitchen & utensil,new,right,114,,,,,,,,
,,,,,,,,18,//,2022-01-09_23h25.27.520,MemLear_ses-01_part-02_label-phase2,2020.1.3,Win32,60,left,2.153,2,0.2103,0,78,78,24,1,stimuli/objects/crocodileclips.jpg,Electronic device & accessory,old,left,115,,,,,,,,
,,,,,,,,18,//,2022-01-09_23h25.27.520,MemLear_ses-01_part-02_label-phase2,2020.1.3,Win32,60,right,2.1007,2,0.2057,0,79,79,21,1,stimuli/objects/martiniglass01b.jpg,Kitchen & utensil,old,left,112,,,,,,,,
,,,,,,,,18,//,2022-01-09_23h25.27.520,MemLear_ses-01_part-02_label-phase2,2020.1.3,Win32,60,left,0.6963,3,0.3429,0,80,80,63,1,stimuli/objects/fanheater.jpg,Electronic device & accessory,old,left,154,,,,,,,,
,,,,,,,,18,//,2022-01-09_23h25.27.520,MemLear_ses-01_part-02_label-phase2,2020.1.3,Win32,60,right,2.0874,1,0.8861,0,81,81,45,1,stimuli/objects/carlighter02.jpg,Electronic device & accessory,old,left,136,,,,,,,,
,,,,,,,,18,//,2022-01-09_23h25.27.520,MemLear_ses-01_part-02_label-phase2,2020.1.3,Win32,60,left,2.3735,3,0.1189,0,82,82,31,1,stimuli/objects/measuringspoon.jpg,Kitchen & utensil,old,left,122,,,,,,,,
,,,,,,,,18,//,2022-01-09_23h25.27.520,MemLear_ses-01_part-02_label-phase2,2020.1.3,Win32,60,left,1.5814,1,0.4015,0,83,83,49,1,stimuli/objects/shotglass.jpg,Kitchen & utensil,old,left,140,,,,,,,,
,,,,,,,,18,//,2022-01-09_23h25.27.520,MemLear_ses-01_part-02_label-phase2,2020.1.3,Win32,60,left,0.6972,4,0.0009,0,84,84,34,1,stimuli/objects/microwave.jpg,Kitchen & utensil,new,right,125,,,,,,,,
,,,,,,,,18,//,2022-01-09_23h25.27.520,MemLear_ses-01_part-02_label-phase2,2020.1.3,Win32,60,right,1.4228,3,0.308,0,85,85,18,1,stimuli/objects/anchor.jpg,Outdoor activity & sport item,new,right,109,,,,,,,,
,,,,,,,,18,//,2022-01-09_23h25.27.520,MemLear_ses-01_part-02_label-phase2,2020.1.3,Win32,60,left,0.9622,4,0.1675,0,86,86,79,1,stimuli/objects/djmixer02.jpg,Electronic device & accessory,old,left,170,,,,,,,,
,,,,,,,,18,//,2022-01-09_23h25.27.520,MemLear_ses-01_part-02_label-phase2,2020.1.3,Win32,60,right,1.4669,3,0.2722,0,87,87,22,1,stimuli/objects/fryingpan02a.jpg,Kitchen & utensil,old,left,113,,,,,,,,
,,,,,,,,18,//,2022-01-09_23h25.27.520,MemLear_ses-01_part-02_label-phase2,2020.1.3,Win32,60,left,0.7732,4,0.1026,0,88,88,8,1,stimuli/objects/lamp04a.jpg,Electronic device & accessory,old,left,99,,,,,,,,
,,,,,,,,18,//,2022-01-09_23h25.27.520,MemLear_ses-01_part-02_label-phase2,2020.1.3,Win32,60,right,0.8794,3,0.2367,0,89,89,89,1,stimuli/objects/corkscrew03a.jpg,Kitchen & utensil,new,right,180,,,,,,,,
,,,,,,,,18,//,2022-01-09_23h25.27.520,MemLear_ses-01_part-02_label-phase2,2020.1.3,Win32,60,,,,,,,,,,,,,,,space,2.7061,0,1,1,1,1,condition_files/ImagesforRecog3_2.csv
