instructions_loop.thisRepN,instructions_loop.thisTrialN,instructions_loop.thisN,instructions_loop.thisIndex,instructions_loop.ran,text1,text2,text3,participant,Expra Code,date,expName,psychopyVersion,OS,frameRate,recog_resp.keys,recog_resp.rt,conf_resp.keys,conf_resp.rt,recog_loop.thisRepN,recog_loop.thisTrialN,recog_loop.thisN,recog_loop.thisIndex,recog_loop.ran,images,type,corr_ans,order,key_resp_break.keys,key_resp_break.rt,list_loop.thisRepN,list_loop.thisTrialN,list_loop.thisN,list_loop.thisIndex,list_loop.ran,recog_list
0,0,0,0,1,Welcome to the last phase of this experiment!,.,Please press the space bar to continue,21,,2021-12-20_14h20.25.047,MemLear_ses-01_part-02_label-phase2,2020.1.3,Win32,60,,,,,,,,,,,,,,,,,,,,,
0,1,1,1,1,.,"In this phase, you will see some objects. 

For each object, you should indicate whether you have seen it before during the experiment.

Press LEFT ARROW for YES
Press RIGHT ARROW for NO

",Please press the space bar to continue ,21,,2021-12-20_14h20.25.047,MemLear_ses-01_part-02_label-phase2,2020.1.3,Win32,60,,,,,,,,,,,,,,,,,,,,,
,,,,,,,,21,,2021-12-20_14h20.25.047,MemLear_ses-01_part-02_label-phase2,2020.1.3,Win32,60,left,1.7087,4,0.0691,0,0,0,10,1,stimuli/objects/painttray.jpg,old,left,11,,,,,,,,
,,,,,,,,21,,2021-12-20_14h20.25.047,MemLear_ses-01_part-02_label-phase2,2020.1.3,Win32,60,left,2.0212,4,0.5386,0,1,1,81,1,stimuli/objects/charcoalbarbecue.jpg,old,left,82,,,,,,,,
,,,,,,,,21,,2021-12-20_14h20.25.047,MemLear_ses-01_part-02_label-phase2,2020.1.3,Win32,60,right,1.3914,2,0.573,0,2,2,73,1,stimuli/objects/foodprocessor.jpg,new,right,74,,,,,,,,
,,,,,,,,21,,2021-12-20_14h20.25.047,MemLear_ses-01_part-02_label-phase2,2020.1.3,Win32,60,right,1.6139,3,0.2274,0,3,3,78,1,stimuli/objects/cutleryset.jpg,new,right,79,,,,,,,,
,,,,,,,,21,,2021-12-20_14h20.25.047,MemLear_ses-01_part-02_label-phase2,2020.1.3,Win32,60,left,2.2955,4,0.448,0,4,4,67,1,stimuli/objects/carlighter02.jpg,old,left,68,,,,,,,,
,,,,,,,,21,,2021-12-20_14h20.25.047,MemLear_ses-01_part-02_label-phase2,2020.1.3,Win32,60,left,1.7441,3,0.577,0,5,5,26,1,stimuli/objects/fryingpan02a.jpg,old,left,27,,,,,,,,
,,,,,,,,21,,2021-12-20_14h20.25.047,MemLear_ses-01_part-02_label-phase2,2020.1.3,Win32,60,left,2.4922,3,0.288,0,6,6,17,1,stimuli/objects/handmixer01d.jpg,old,left,18,,,,,,,,
,,,,,,,,21,,2021-12-20_14h20.25.047,MemLear_ses-01_part-02_label-phase2,2020.1.3,Win32,60,right,1.3624,3,0.4322,0,7,7,59,1,stimuli/objects/alarmclock01.jpg,new,right,60,,,,,,,,
,,,,,,,,21,,2021-12-20_14h20.25.047,MemLear_ses-01_part-02_label-phase2,2020.1.3,Win32,60,left,1.2763,4,0.2946,0,8,8,7,1,stimuli/objects/printer02.jpg,new,right,8,,,,,,,,
,,,,,,,,21,,2021-12-20_14h20.25.047,MemLear_ses-01_part-02_label-phase2,2020.1.3,Win32,60,right,2.1286,2,1.9555,0,9,9,53,1,stimuli/objects/fork03c.jpg,old,left,54,,,,,,,,
,,,,,,,,21,,2021-12-20_14h20.25.047,MemLear_ses-01_part-02_label-phase2,2020.1.3,Win32,60,left,1.639,4,0.085,0,10,10,33,1,stimuli/objects/footballhelmet.jpg,new,right,34,,,,,,,,
,,,,,,,,21,,2021-12-20_14h20.25.047,MemLear_ses-01_part-02_label-phase2,2020.1.3,Win32,60,right,2.5006,3,1.6617,0,11,11,21,1,stimuli/objects/spotlight.jpg,old,left,22,,,,,,,,
,,,,,,,,21,,2021-12-20_14h20.25.047,MemLear_ses-01_part-02_label-phase2,2020.1.3,Win32,60,right,1.1251,3,0.2531,0,12,12,76,1,stimuli/objects/jug.jpg,new,right,77,,,,,,,,
,,,,,,,,21,,2021-12-20_14h20.25.047,MemLear_ses-01_part-02_label-phase2,2020.1.3,Win32,60,right,2.5766,4,0.8601,0,13,13,22,1,stimuli/objects/photocopier.jpg,old,left,23,,,,,,,,
,,,,,,,,21,,2021-12-20_14h20.25.047,MemLear_ses-01_part-02_label-phase2,2020.1.3,Win32,60,right,1.8177,4,0.3278,0,14,14,49,1,stimuli/objects/fan.jpg,new,right,50,,,,,,,,
,,,,,,,,21,,2021-12-20_14h20.25.047,MemLear_ses-01_part-02_label-phase2,2020.1.3,Win32,60,left,1.4808,4,0.2487,0,15,15,6,1,stimuli/objects/kitchenscale01a.jpg,old,left,7,,,,,,,,
,,,,,,,,21,,2021-12-20_14h20.25.047,MemLear_ses-01_part-02_label-phase2,2020.1.3,Win32,60,left,1.6224,4,0.2882,0,16,16,4,1,stimuli/objects/securitycamera.jpg,old,left,5,,,,,,,,
,,,,,,,,21,,2021-12-20_14h20.25.047,MemLear_ses-01_part-02_label-phase2,2020.1.3,Win32,60,left,1.7794,3,0.2033,0,17,17,46,1,stimuli/objects/bowl02a.jpg,old,left,47,,,,,,,,
,,,,,,,,21,,2021-12-20_14h20.25.047,MemLear_ses-01_part-02_label-phase2,2020.1.3,Win32,60,left,1.5185,4,0.2728,0,18,18,51,1,stimuli/objects/walkman.jpg,old,left,52,,,,,,,,
,,,,,,,,21,,2021-12-20_14h20.25.047,MemLear_ses-01_part-02_label-phase2,2020.1.3,Win32,60,right,1.1385,3,0.2135,0,19,19,5,1,stimuli/objects/filmnegative.jpg,old,left,6,,,,,,,,
,,,,,,,,21,,2021-12-20_14h20.25.047,MemLear_ses-01_part-02_label-phase2,2020.1.3,Win32,60,right,0.9019,4,0.3195,0,20,20,89,1,stimuli/objects/ipod.jpg,old,left,90,,,,,,,,
,,,,,,,,21,,2021-12-20_14h20.25.047,MemLear_ses-01_part-02_label-phase2,2020.1.3,Win32,60,right,1.0034,4,0.3133,0,21,21,45,1,stimuli/objects/tripod01.jpg,new,right,46,,,,,,,,
,,,,,,,,21,,2021-12-20_14h20.25.047,MemLear_ses-01_part-02_label-phase2,2020.1.3,Win32,60,right,1.194,4,0.3522,0,22,22,43,1,stimuli/objects/lightbulb01.jpg,old,left,44,,,,,,,,
,,,,,,,,21,,2021-12-20_14h20.25.047,MemLear_ses-01_part-02_label-phase2,2020.1.3,Win32,60,right,2.0246,3,0.4066,0,23,23,41,1,stimuli/objects/cassettetape01a.jpg,new,right,42,,,,,,,,
,,,,,,,,21,,2021-12-20_14h20.25.047,MemLear_ses-01_part-02_label-phase2,2020.1.3,Win32,60,left,1.2509,4,0.2132,0,24,24,44,1,stimuli/objects/ramekin01.jpg,old,left,45,,,,,,,,
,,,,,,,,21,,2021-12-20_14h20.25.047,MemLear_ses-01_part-02_label-phase2,2020.1.3,Win32,60,right,3.5062,3,0.1949,0,25,25,28,1,stimuli/objects/carantenna.jpg,old,left,29,,,,,,,,
,,,,,,,,21,,2021-12-20_14h20.25.047,MemLear_ses-01_part-02_label-phase2,2020.1.3,Win32,60,right,1.2946,4,0.0128,0,26,26,40,1,stimuli/objects/cashregister01.jpg,old,left,41,,,,,,,,
,,,,,,,,21,,2021-12-20_14h20.25.047,MemLear_ses-01_part-02_label-phase2,2020.1.3,Win32,60,right,0.97,4,0.2685,0,27,27,9,1,stimuli/objects/expansioncard.jpg,old,left,10,,,,,,,,
,,,,,,,,21,,2021-12-20_14h20.25.047,MemLear_ses-01_part-02_label-phase2,2020.1.3,Win32,60,right,1.1153,4,0.251,0,28,28,52,1,stimuli/objects/stovetop.jpg,new,right,53,,,,,,,,
,,,,,,,,21,,2021-12-20_14h20.25.047,MemLear_ses-01_part-02_label-phase2,2020.1.3,Win32,60,right,1.6808,4,0.0216,0,29,29,88,1,stimuli/objects/toasteroven.jpg,old,left,89,,,,,,,,
,,,,,,,,21,,2021-12-20_14h20.25.047,MemLear_ses-01_part-02_label-phase2,2020.1.3,Win32,60,left,1.6032,3,0.1942,0,30,30,55,1,stimuli/objects/bikepump01.jpg,old,left,56,,,,,,,,
,,,,,,,,21,,2021-12-20_14h20.25.047,MemLear_ses-01_part-02_label-phase2,2020.1.3,Win32,60,right,0.898,4,0.3824,0,31,31,48,1,stimuli/objects/fanblades.jpg,new,right,49,,,,,,,,
,,,,,,,,21,,2021-12-20_14h20.25.047,MemLear_ses-01_part-02_label-phase2,2020.1.3,Win32,60,right,0.8467,3,0.2333,0,32,32,86,1,stimuli/objects/lightswitch01.jpg,old,left,87,,,,,,,,
,,,,,,,,21,,2021-12-20_14h20.25.047,MemLear_ses-01_part-02_label-phase2,2020.1.3,Win32,60,left,1.1717,4,0.3308,0,33,33,24,1,stimuli/objects/solderingiron.jpg,new,right,25,,,,,,,,
,,,,,,,,21,,2021-12-20_14h20.25.047,MemLear_ses-01_part-02_label-phase2,2020.1.3,Win32,60,right,1.9659,4,0.2072,0,34,34,25,1,stimuli/objects/jack.jpg,old,left,26,,,,,,,,
,,,,,,,,21,,2021-12-20_14h20.25.047,MemLear_ses-01_part-02_label-phase2,2020.1.3,Win32,60,right,0.8379,4,0.2211,0,35,35,71,1,stimuli/objects/bottlecap.jpg,old,left,72,,,,,,,,
,,,,,,,,21,,2021-12-20_14h20.25.047,MemLear_ses-01_part-02_label-phase2,2020.1.3,Win32,60,right,1.6593,4,0.116,0,36,36,1,1,stimuli/objects/usbkey.jpg,old,left,2,,,,,,,,
,,,,,,,,21,,2021-12-20_14h20.25.047,MemLear_ses-01_part-02_label-phase2,2020.1.3,Win32,60,right,0.6993,4,0.213,0,37,37,15,1,stimuli/objects/cuttingboard.jpg,old,left,16,,,,,,,,
,,,,,,,,21,,2021-12-20_14h20.25.047,MemLear_ses-01_part-02_label-phase2,2020.1.3,Win32,60,right,0.9509,4,0.9315,0,38,38,19,1,stimuli/objects/coffeemaker.jpg,old,left,20,,,,,,,,
,,,,,,,,21,,2021-12-20_14h20.25.047,MemLear_ses-01_part-02_label-phase2,2020.1.3,Win32,60,left,3.3973,4,0.7046,0,39,39,61,1,stimuli/objects/mitresaw.jpg,new,right,62,,,,,,,,
,,,,,,,,21,,2021-12-20_14h20.25.047,MemLear_ses-01_part-02_label-phase2,2020.1.3,Win32,60,right,0.9262,3,0.2552,0,40,40,36,1,stimuli/objects/payphone.jpg,old,left,37,,,,,,,,
,,,,,,,,21,,2021-12-20_14h20.25.047,MemLear_ses-01_part-02_label-phase2,2020.1.3,Win32,60,right,3.497,3,1.6272,0,41,41,57,1,stimuli/objects/peppermill02b.jpg,old,left,58,,,,,,,,
,,,,,,,,21,,2021-12-20_14h20.25.047,MemLear_ses-01_part-02_label-phase2,2020.1.3,Win32,60,right,0.9885,4,0.501,0,42,42,32,1,stimuli/objects/pot01.jpg,old,left,33,,,,,,,,
,,,,,,,,21,,2021-12-20_14h20.25.047,MemLear_ses-01_part-02_label-phase2,2020.1.3,Win32,60,right,0.7678,4,0.2186,0,43,43,66,1,stimuli/objects/fishingrod.jpg,new,right,67,,,,,,,,
,,,,,,,,21,,2021-12-20_14h20.25.047,MemLear_ses-01_part-02_label-phase2,2020.1.3,Win32,60,right,4.4773,2,0.2637,0,44,44,2,1,stimuli/objects/screwdriver04b.jpg,new,right,3,,,,,,,,
,,,,,,,,21,,2021-12-20_14h20.25.047,MemLear_ses-01_part-02_label-phase2,2020.1.3,Win32,60,right,1.292,4,0.2912,0,45,45,80,1,stimuli/objects/toyhockeystick01.jpg,old,left,81,,,,,,,,
,,,,,,,,21,,2021-12-20_14h20.25.047,MemLear_ses-01_part-02_label-phase2,2020.1.3,Win32,60,right,2.6836,4,0.1241,0,46,46,64,1,stimuli/objects/martiniglass01b.jpg,old,left,65,,,,,,,,
,,,,,,,,21,,2021-12-20_14h20.25.047,MemLear_ses-01_part-02_label-phase2,2020.1.3,Win32,60,left,1.8616,3,0.0003,0,47,47,3,1,stimuli/objects/golfbag.jpg,old,left,4,,,,,,,,
,,,,,,,,21,,2021-12-20_14h20.25.047,MemLear_ses-01_part-02_label-phase2,2020.1.3,Win32,60,left,1.3228,4,0.1356,0,48,48,68,1,stimuli/objects/boltcutter.jpg,old,left,69,,,,,,,,
,,,,,,,,21,,2021-12-20_14h20.25.047,MemLear_ses-01_part-02_label-phase2,2020.1.3,Win32,60,right,1.0751,4,0.3592,0,49,49,30,1,stimuli/objects/fridge.jpg,old,left,31,,,,,,,,
,,,,,,,,21,,2021-12-20_14h20.25.047,MemLear_ses-01_part-02_label-phase2,2020.1.3,Win32,60,left,1.0624,4,0.2193,0,50,50,69,1,stimuli/objects/toaster01.jpg,new,right,70,,,,,,,,
,,,,,,,,21,,2021-12-20_14h20.25.047,MemLear_ses-01_part-02_label-phase2,2020.1.3,Win32,60,right,1.6362,4,0.0229,0,51,51,47,1,stimuli/objects/soundmixer.jpg,old,left,48,,,,,,,,
,,,,,,,,21,,2021-12-20_14h20.25.047,MemLear_ses-01_part-02_label-phase2,2020.1.3,Win32,60,right,0.9562,4,0.2027,0,52,52,50,1,stimuli/objects/desktopcomputer.jpg,old,left,51,,,,,,,,
,,,,,,,,21,,2021-12-20_14h20.25.047,MemLear_ses-01_part-02_label-phase2,2020.1.3,Win32,60,right,1.7957,2,0.2631,0,53,53,82,1,stimuli/objects/waterbottle03.jpg,old,left,83,,,,,,,,
,,,,,,,,21,,2021-12-20_14h20.25.047,MemLear_ses-01_part-02_label-phase2,2020.1.3,Win32,60,right,2.1066,1,3.7706,0,54,54,62,1,stimuli/objects/hockeygoaliemask.jpg,new,right,63,,,,,,,,
,,,,,,,,21,,2021-12-20_14h20.25.047,MemLear_ses-01_part-02_label-phase2,2020.1.3,Win32,60,right,4.0024,1,0.9051,0,55,55,31,1,stimuli/objects/chandelier.jpg,old,left,32,,,,,,,,
,,,,,,,,21,,2021-12-20_14h20.25.047,MemLear_ses-01_part-02_label-phase2,2020.1.3,Win32,60,right,2.1814,4,0.0529,0,56,56,87,1,stimuli/objects/knifesharpener.jpg,old,left,88,,,,,,,,
,,,,,,,,21,,2021-12-20_14h20.25.047,MemLear_ses-01_part-02_label-phase2,2020.1.3,Win32,60,right,1.2816,2,0.3088,0,57,57,83,1,stimuli/objects/fanheater.jpg,old,left,84,,,,,,,,
,,,,,,,,21,,2021-12-20_14h20.25.047,MemLear_ses-01_part-02_label-phase2,2020.1.3,Win32,60,right,1.2726,4,0.1999,0,58,58,75,1,stimuli/objects/thermos.jpg,new,right,76,,,,,,,,
,,,,,,,,21,,2021-12-20_14h20.25.047,MemLear_ses-01_part-02_label-phase2,2020.1.3,Win32,60,right,1.0453,4,0.2188,0,59,59,72,1,stimuli/objects/cowbell.jpg,old,left,73,,,,,,,,
,,,,,,,,21,,2021-12-20_14h20.25.047,MemLear_ses-01_part-02_label-phase2,2020.1.3,Win32,60,right,0.8474,4,0.2363,0,60,60,38,1,stimuli/objects/garlicpress02a.jpg,new,right,39,,,,,,,,
,,,,,,,,21,,2021-12-20_14h20.25.047,MemLear_ses-01_part-02_label-phase2,2020.1.3,Win32,60,left,1.4395,4,0.1438,0,61,61,58,1,stimuli/objects/anchor.jpg,new,right,59,,,,,,,,
,,,,,,,,21,,2021-12-20_14h20.25.047,MemLear_ses-01_part-02_label-phase2,2020.1.3,Win32,60,right,2.3108,3,0.1626,0,62,62,56,1,stimuli/objects/fuse.jpg,new,right,57,,,,,,,,
,,,,,,,,21,,2021-12-20_14h20.25.047,MemLear_ses-01_part-02_label-phase2,2020.1.3,Win32,60,right,0.7142,4,0.063,0,63,63,11,1,stimuli/objects/microphone01.jpg,new,right,12,,,,,,,,
,,,,,,,,21,,2021-12-20_14h20.25.047,MemLear_ses-01_part-02_label-phase2,2020.1.3,Win32,60,right,0.8595,4,0.1877,0,64,64,77,1,stimuli/objects/tupperware03a.jpg,old,left,78,,,,,,,,
,,,,,,,,21,,2021-12-20_14h20.25.047,MemLear_ses-01_part-02_label-phase2,2020.1.3,Win32,60,right,0.6928,4,0.1981,0,65,65,27,1,stimuli/objects/walkietalkie.jpg,old,left,28,,,,,,,,
,,,,,,,,21,,2021-12-20_14h20.25.047,MemLear_ses-01_part-02_label-phase2,2020.1.3,Win32,60,left,1.8674,4,0.0902,0,66,66,42,1,stimuli/objects/scanner.jpg,old,left,43,,,,,,,,
,,,,,,,,21,,2021-12-20_14h20.25.047,MemLear_ses-01_part-02_label-phase2,2020.1.3,Win32,60,right,0.7964,4,0.4251,0,67,67,35,1,stimuli/objects/dvdcase01.jpg,new,right,36,,,,,,,,
,,,,,,,,21,,2021-12-20_14h20.25.047,MemLear_ses-01_part-02_label-phase2,2020.1.3,Win32,60,left,1.5804,4,0.1078,0,68,68,37,1,stimuli/objects/ethernetcable02.jpg,new,right,38,,,,,,,,
,,,,,,,,21,,2021-12-20_14h20.25.047,MemLear_ses-01_part-02_label-phase2,2020.1.3,Win32,60,right,1.3212,2,0.4329,0,69,69,65,1,stimuli/objects/cookingpot.jpg,old,left,66,,,,,,,,
,,,,,,,,21,,2021-12-20_14h20.25.047,MemLear_ses-01_part-02_label-phase2,2020.1.3,Win32,60,right,3.0619,2,1.2059,0,70,70,85,1,stimuli/objects/nutcracker01.jpg,new,right,86,,,,,,,,
,,,,,,,,21,,2021-12-20_14h20.25.047,MemLear_ses-01_part-02_label-phase2,2020.1.3,Win32,60,right,1.9281,2,0.1244,0,71,71,79,1,stimuli/objects/microwave.jpg,new,right,80,,,,,,,,
,,,,,,,,21,,2021-12-20_14h20.25.047,MemLear_ses-01_part-02_label-phase2,2020.1.3,Win32,60,right,1.8523,4,0.0064,0,72,72,60,1,stimuli/objects/extensioncord.jpg,old,left,61,,,,,,,,
,,,,,,,,21,,2021-12-20_14h20.25.047,MemLear_ses-01_part-02_label-phase2,2020.1.3,Win32,60,right,1.0891,4,0.1277,0,73,73,34,1,stimuli/objects/heatpump.jpg,old,left,35,,,,,,,,
,,,,,,,,21,,2021-12-20_14h20.25.047,MemLear_ses-01_part-02_label-phase2,2020.1.3,Win32,60,right,3.5319,3,0.2708,0,74,74,13,1,stimuli/objects/computerkeyboard02.jpg,old,left,14,,,,,,,,
,,,,,,,,21,,2021-12-20_14h20.25.047,MemLear_ses-01_part-02_label-phase2,2020.1.3,Win32,60,right,1.0056,4,0.2125,0,75,75,14,1,stimuli/objects/muffintray01.jpg,old,left,15,,,,,,,,
,,,,,,,,21,,2021-12-20_14h20.25.047,MemLear_ses-01_part-02_label-phase2,2020.1.3,Win32,60,right,1.0085,4,0.1244,0,76,76,63,1,stimuli/objects/cameracase01a.jpg,old,left,64,,,,,,,,
,,,,,,,,21,,2021-12-20_14h20.25.047,MemLear_ses-01_part-02_label-phase2,2020.1.3,Win32,60,left,2.2257,4,0.0004,0,77,77,8,1,stimuli/objects/alarmsystem.jpg,old,left,9,,,,,,,,
,,,,,,,,21,,2021-12-20_14h20.25.047,MemLear_ses-01_part-02_label-phase2,2020.1.3,Win32,60,right,0.8221,4,0.0184,0,78,78,39,1,stimuli/objects/beermug01a.jpg,old,left,40,,,,,,,,
,,,,,,,,21,,2021-12-20_14h20.25.047,MemLear_ses-01_part-02_label-phase2,2020.1.3,Win32,60,left,2.282,2,2.6906,0,79,79,12,1,stimuli/objects/snowshovel.jpg,old,left,13,,,,,,,,
,,,,,,,,21,,2021-12-20_14h20.25.047,MemLear_ses-01_part-02_label-phase2,2020.1.3,Win32,60,right,0.7169,4,0.3777,0,80,80,16,1,stimuli/objects/icebucket.jpg,old,left,17,,,,,,,,
,,,,,,,,21,,2021-12-20_14h20.25.047,MemLear_ses-01_part-02_label-phase2,2020.1.3,Win32,60,right,2.247,4,0.2777,0,81,81,29,1,stimuli/objects/peeler01.jpg,old,left,30,,,,,,,,
,,,,,,,,21,,2021-12-20_14h20.25.047,MemLear_ses-01_part-02_label-phase2,2020.1.3,Win32,60,right,0.9656,4,0.3266,0,82,82,74,1,stimuli/objects/pastaspoon.jpg,old,left,75,,,,,,,,
,,,,,,,,21,,2021-12-20_14h20.25.047,MemLear_ses-01_part-02_label-phase2,2020.1.3,Win32,60,left,2.1343,2,0.0666,0,83,83,70,1,stimuli/objects/usbcable01a.jpg,new,right,71,,,,,,,,
,,,,,,,,21,,2021-12-20_14h20.25.047,MemLear_ses-01_part-02_label-phase2,2020.1.3,Win32,60,right,1.2491,4,0.2738,0,84,84,18,1,stimuli/objects/djmixer02.jpg,old,left,19,,,,,,,,
,,,,,,,,21,,2021-12-20_14h20.25.047,MemLear_ses-01_part-02_label-phase2,2020.1.3,Win32,60,right,0.6368,4,0.2763,0,85,85,54,1,stimuli/objects/ladder.jpg,new,right,55,,,,,,,,
,,,,,,,,21,,2021-12-20_14h20.25.047,MemLear_ses-01_part-02_label-phase2,2020.1.3,Win32,60,right,1.0698,4,0.3851,0,86,86,0,1,stimuli/objects/papershredder.jpg,new,right,1,,,,,,,,
,,,,,,,,21,,2021-12-20_14h20.25.047,MemLear_ses-01_part-02_label-phase2,2020.1.3,Win32,60,right,3.3255,3,0.7391,0,87,87,23,1,stimuli/objects/chocolatefonduedish.jpg,old,left,24,,,,,,,,
,,,,,,,,21,,2021-12-20_14h20.25.047,MemLear_ses-01_part-02_label-phase2,2020.1.3,Win32,60,right,2.9882,4,0.3357,0,88,88,84,1,stimuli/objects/hourglass.jpg,new,right,85,,,,,,,,
,,,,,,,,21,,2021-12-20_14h20.25.047,MemLear_ses-01_part-02_label-phase2,2020.1.3,Win32,60,right,1.06,4,0.6411,0,89,89,20,1,stimuli/objects/saltshaker03a.jpg,old,left,21,,,,,,,,
,,,,,,,,21,,2021-12-20_14h20.25.047,MemLear_ses-01_part-02_label-phase2,2020.1.3,Win32,60,,,,,,,,,,,,,,space,7.4285,0,0,0,0,1,condition_files/ImagesforRecog2_1.csv
,,,,,,,,21,,2021-12-20_14h20.25.047,MemLear_ses-01_part-02_label-phase2,2020.1.3,Win32,60,right,1.4247,4,0.2398,0,0,0,69,1,stimuli/objects/webcam.jpg,new,right,160,,,,,,,,
,,,,,,,,21,,2021-12-20_14h20.25.047,MemLear_ses-01_part-02_label-phase2,2020.1.3,Win32,60,right,1.079,4,0.211,0,1,1,58,1,stimuli/objects/audiocablesplitter.jpg,old,left,149,,,,,,,,
,,,,,,,,21,,2021-12-20_14h20.25.047,MemLear_ses-01_part-02_label-phase2,2020.1.3,Win32,60,right,10.8159,4,0.2605,0,2,2,16,1,stimuli/objects/strainer01b.jpg,new,right,107,,,,,,,,
,,,,,,,,21,,2021-12-20_14h20.25.047,MemLear_ses-01_part-02_label-phase2,2020.1.3,Win32,60,right,4.0435,4,0.2127,0,3,3,5,1,stimuli/objects/measuringspoon.jpg,old,left,96,,,,,,,,
,,,,,,,,21,,2021-12-20_14h20.25.047,MemLear_ses-01_part-02_label-phase2,2020.1.3,Win32,60,left,1.6145,4,0.296,0,4,4,64,1,stimuli/objects/squeegee01b.jpg,old,left,155,,,,,,,,
,,,,,,,,21,,2021-12-20_14h20.25.047,MemLear_ses-01_part-02_label-phase2,2020.1.3,Win32,60,right,1.8409,4,1.0122,0,5,5,76,1,stimuli/objects/cellphone.jpg,new,right,167,,,,,,,,
,,,,,,,,21,,2021-12-20_14h20.25.047,MemLear_ses-01_part-02_label-phase2,2020.1.3,Win32,60,right,5.1243,4,0.0106,0,6,6,85,1,stimuli/objects/telephone01b.jpg,old,left,176,,,,,,,,
,,,,,,,,21,,2021-12-20_14h20.25.047,MemLear_ses-01_part-02_label-phase2,2020.1.3,Win32,60,right,12.4475,4,0.2242,0,7,7,30,1,stimuli/objects/shovel01.jpg,new,right,121,,,,,,,,
,,,,,,,,21,,2021-12-20_14h20.25.047,MemLear_ses-01_part-02_label-phase2,2020.1.3,Win32,60,right,1.5348,4,0.3008,0,8,8,25,1,stimuli/objects/studiolight.jpg,new,right,116,,,,,,,,
,,,,,,,,21,,2021-12-20_14h20.25.047,MemLear_ses-01_part-02_label-phase2,2020.1.3,Win32,60,left,4.9669,3,0.2417,0,9,9,4,1,stimuli/objects/spatula04.jpg,old,left,95,,,,,,,,
,,,,,,,,21,,2021-12-20_14h20.25.047,MemLear_ses-01_part-02_label-phase2,2020.1.3,Win32,60,right,1.304,4,0.2242,0,10,10,1,1,stimuli/objects/shotglass.jpg,old,left,92,,,,,,,,
,,,,,,,,21,,2021-12-20_14h20.25.047,MemLear_ses-01_part-02_label-phase2,2020.1.3,Win32,60,right,1.2956,4,0.0006,0,11,11,21,1,stimuli/objects/radio01.jpg,old,left,112,,,,,,,,
,,,,,,,,21,,2021-12-20_14h20.25.047,MemLear_ses-01_part-02_label-phase2,2020.1.3,Win32,60,right,0.6711,4,0.0409,0,12,12,23,1,stimuli/objects/smokedetector02.jpg,new,right,114,,,,,,,,
,,,,,,,,21,,2021-12-20_14h20.25.047,MemLear_ses-01_part-02_label-phase2,2020.1.3,Win32,60,right,1.3743,4,0.117,0,13,13,8,1,stimuli/objects/blender.jpg,new,right,99,,,,,,,,
,,,,,,,,21,,2021-12-20_14h20.25.047,MemLear_ses-01_part-02_label-phase2,2020.1.3,Win32,60,right,1.1954,1,0.9996,0,14,14,52,1,stimuli/objects/surfboard.jpg,old,left,143,,,,,,,,
,,,,,,,,21,,2021-12-20_14h20.25.047,MemLear_ses-01_part-02_label-phase2,2020.1.3,Win32,60,right,1.4527,4,0.0058,0,15,15,75,1,stimuli/objects/crocodileclips.jpg,old,left,166,,,,,,,,
,,,,,,,,21,,2021-12-20_14h20.25.047,MemLear_ses-01_part-02_label-phase2,2020.1.3,Win32,60,left,1.2721,4,0.0923,0,16,16,13,1,stimuli/objects/cleaver01.jpg,old,left,104,,,,,,,,
,,,,,,,,21,,2021-12-20_14h20.25.047,MemLear_ses-01_part-02_label-phase2,2020.1.3,Win32,60,right,1.3069,4,0.0667,0,17,17,22,1,stimuli/objects/aluminiumfoil.jpg,new,right,113,,,,,,,,
,,,,,,,,21,,2021-12-20_14h20.25.047,MemLear_ses-01_part-02_label-phase2,2020.1.3,Win32,60,left,1.5069,4,0.0532,0,18,18,24,1,stimuli/objects/caulking.jpg,old,left,115,,,,,,,,
,,,,,,,,21,,2021-12-20_14h20.25.047,MemLear_ses-01_part-02_label-phase2,2020.1.3,Win32,60,right,1.0621,4,0.0116,0,19,19,33,1,stimuli/objects/wheelbarrow01.jpg,new,right,124,,,,,,,,
,,,,,,,,21,,2021-12-20_14h20.25.047,MemLear_ses-01_part-02_label-phase2,2020.1.3,Win32,60,right,1.0042,4,0.0175,0,20,20,46,1,stimuli/objects/canister.jpg,old,left,137,,,,,,,,
,,,,,,,,21,,2021-12-20_14h20.25.047,MemLear_ses-01_part-02_label-phase2,2020.1.3,Win32,60,right,2.775,2,0.2127,0,21,21,36,1,stimuli/objects/oven.jpg,old,left,127,,,,,,,,
,,,,,,,,21,,2021-12-20_14h20.25.047,MemLear_ses-01_part-02_label-phase2,2020.1.3,Win32,60,right,0.8659,3,0.0763,0,22,22,74,1,stimuli/objects/speaker04.jpg,new,right,165,,,,,,,,
,,,,,,,,21,,2021-12-20_14h20.25.047,MemLear_ses-01_part-02_label-phase2,2020.1.3,Win32,60,right,1.5733,4,0.0007,0,23,23,11,1,stimuli/objects/cork02.jpg,new,right,102,,,,,,,,
,,,,,,,,21,,2021-12-20_14h20.25.047,MemLear_ses-01_part-02_label-phase2,2020.1.3,Win32,60,left,1.3451,4,0.0417,0,24,24,32,1,stimuli/objects/podium.jpg,old,left,123,,,,,,,,
,,,,,,,,21,,2021-12-20_14h20.25.047,MemLear_ses-01_part-02_label-phase2,2020.1.3,Win32,60,right,1.334,4,0.0172,0,25,25,14,1,stimuli/objects/contactlens.jpg,new,right,105,,,,,,,,
,,,,,,,,21,,2021-12-20_14h20.25.047,MemLear_ses-01_part-02_label-phase2,2020.1.3,Win32,60,right,1.4399,4,0.0236,0,26,26,66,1,stimuli/objects/dishrack.jpg,old,left,157,,,,,,,,
,,,,,,,,21,,2021-12-20_14h20.25.047,MemLear_ses-01_part-02_label-phase2,2020.1.3,Win32,60,right,0.853,4,0.015,0,27,27,73,1,stimuli/objects/camera01a.jpg,old,left,164,,,,,,,,
,,,,,,,,21,,2021-12-20_14h20.25.047,MemLear_ses-01_part-02_label-phase2,2020.1.3,Win32,60,left,1.5679,4,0.0331,0,28,28,39,1,stimuli/objects/coffeemachine.jpg,old,left,130,,,,,,,,
,,,,,,,,21,,2021-12-20_14h20.25.047,MemLear_ses-01_part-02_label-phase2,2020.1.3,Win32,60,right,0.644,4,0.1779,0,29,29,59,1,stimuli/objects/butterdish.jpg,new,right,150,,,,,,,,
,,,,,,,,21,,2021-12-20_14h20.25.047,MemLear_ses-01_part-02_label-phase2,2020.1.3,Win32,60,right,0.983,3,0.098,0,30,30,38,1,stimuli/objects/remotecontrol04.jpg,old,left,129,,,,,,,,
,,,,,,,,21,,2021-12-20_14h20.25.047,MemLear_ses-01_part-02_label-phase2,2020.1.3,Win32,60,right,0.821,1,1.8718,0,31,31,60,1,stimuli/objects/servingspoon01.jpg,old,left,151,,,,,,,,
,,,,,,,,21,,2021-12-20_14h20.25.047,MemLear_ses-01_part-02_label-phase2,2020.1.3,Win32,60,left,1.1749,4,0.089,0,32,32,15,1,stimuli/objects/kneepad01c.jpg,old,left,106,,,,,,,,
,,,,,,,,21,,2021-12-20_14h20.25.047,MemLear_ses-01_part-02_label-phase2,2020.1.3,Win32,60,right,0.9459,4,0.0808,0,33,33,53,1,stimuli/objects/lectern01.jpg,old,left,144,,,,,,,,
,,,,,,,,21,,2021-12-20_14h20.25.047,MemLear_ses-01_part-02_label-phase2,2020.1.3,Win32,60,right,0.6983,4,0.0421,0,34,34,43,1,stimuli/objects/coffeepot03a.jpg,old,left,134,,,,,,,,
,,,,,,,,21,,2021-12-20_14h20.25.047,MemLear_ses-01_part-02_label-phase2,2020.1.3,Win32,60,right,1.2664,4,0.084,0,35,35,45,1,stimuli/objects/breadknife.jpg,old,left,136,,,,,,,,
,,,,,,,,21,,2021-12-20_14h20.25.047,MemLear_ses-01_part-02_label-phase2,2020.1.3,Win32,60,left,1.6115,4,0.1726,0,36,36,84,1,stimuli/objects/backpack01a.jpg,old,left,175,,,,,,,,
,,,,,,,,21,,2021-12-20_14h20.25.047,MemLear_ses-01_part-02_label-phase2,2020.1.3,Win32,60,left,1.3683,4,0.0006,0,37,37,88,1,stimuli/objects/filmroll.jpg,old,left,179,,,,,,,,
,,,,,,,,21,,2021-12-20_14h20.25.047,MemLear_ses-01_part-02_label-phase2,2020.1.3,Win32,60,left,3.3256,1,0.2557,0,38,38,51,1,stimuli/objects/avcable.jpg,old,left,142,,,,,,,,
,,,,,,,,21,,2021-12-20_14h20.25.047,MemLear_ses-01_part-02_label-phase2,2020.1.3,Win32,60,left,1.1413,4,3.3119,0,39,39,80,1,stimuli/objects/tablesaw.jpg,old,left,171,,,,,,,,
,,,,,,,,21,,2021-12-20_14h20.25.047,MemLear_ses-01_part-02_label-phase2,2020.1.3,Win32,60,right,0.6973,4,0.0537,0,40,40,77,1,stimuli/objects/beachumbrella01.jpg,old,left,168,,,,,,,,
,,,,,,,,21,,2021-12-20_14h20.25.047,MemLear_ses-01_part-02_label-phase2,2020.1.3,Win32,60,left,2.4518,4,0.2212,0,41,41,42,1,stimuli/objects/lamp04a.jpg,old,left,133,,,,,,,,
,,,,,,,,21,,2021-12-20_14h20.25.047,MemLear_ses-01_part-02_label-phase2,2020.1.3,Win32,60,right,2.8946,4,0.1647,0,42,42,67,1,stimuli/objects/satellitedish01.jpg,new,right,158,,,,,,,,
,,,,,,,,21,,2021-12-20_14h20.25.047,MemLear_ses-01_part-02_label-phase2,2020.1.3,Win32,60,left,3.9687,3,0.3166,0,43,43,7,1,stimuli/objects/taperecorder.jpg,old,left,98,,,,,,,,
,,,,,,,,21,,2021-12-20_14h20.25.047,MemLear_ses-01_part-02_label-phase2,2020.1.3,Win32,60,right,0.6964,4,0.2032,0,44,44,40,1,stimuli/objects/gravyboat.jpg,new,right,131,,,,,,,,
,,,,,,,,21,,2021-12-20_14h20.25.047,MemLear_ses-01_part-02_label-phase2,2020.1.3,Win32,60,left,1.0094,4,0.04,0,45,45,3,1,stimuli/objects/snowshoe.jpg,old,left,94,,,,,,,,
,,,,,,,,21,,2021-12-20_14h20.25.047,MemLear_ses-01_part-02_label-phase2,2020.1.3,Win32,60,right,1.3922,3,0.5205,0,46,46,70,1,stimuli/objects/knife03.jpg,old,left,161,,,,,,,,
,,,,,,,,21,,2021-12-20_14h20.25.047,MemLear_ses-01_part-02_label-phase2,2020.1.3,Win32,60,left,1.2536,4,0.2251,0,47,47,86,1,stimuli/objects/videocamera01a.jpg,old,left,177,,,,,,,,
,,,,,,,,21,,2021-12-20_14h20.25.047,MemLear_ses-01_part-02_label-phase2,2020.1.3,Win32,60,right,0.8137,4,0.341,0,48,48,18,1,stimuli/objects/wiicontroller.jpg,old,left,109,,,,,,,,
,,,,,,,,21,,2021-12-20_14h20.25.047,MemLear_ses-01_part-02_label-phase2,2020.1.3,Win32,60,right,1.1834,1,0.5247,0,49,49,79,1,stimuli/objects/icecubetray01a.jpg,new,right,170,,,,,,,,
,,,,,,,,21,,2021-12-20_14h20.25.047,MemLear_ses-01_part-02_label-phase2,2020.1.3,Win32,60,right,1.7491,4,0.0376,0,50,50,72,1,stimuli/objects/minifridge.jpg,old,left,163,,,,,,,,
,,,,,,,,21,,2021-12-20_14h20.25.047,MemLear_ses-01_part-02_label-phase2,2020.1.3,Win32,60,right,1.366,4,0.4802,0,51,51,56,1,stimuli/objects/electricoutlet.jpg,old,left,147,,,,,,,,
,,,,,,,,21,,2021-12-20_14h20.25.047,MemLear_ses-01_part-02_label-phase2,2020.1.3,Win32,60,right,0.6772,4,0.3671,0,52,52,37,1,stimuli/objects/megaphone.jpg,new,right,128,,,,,,,,
,,,,,,,,21,,2021-12-20_14h20.25.047,MemLear_ses-01_part-02_label-phase2,2020.1.3,Win32,60,right,0.5647,4,0.5713,0,53,53,10,1,stimuli/objects/whisk.jpg,old,left,101,,,,,,,,
,,,,,,,,21,,2021-12-20_14h20.25.047,MemLear_ses-01_part-02_label-phase2,2020.1.3,Win32,60,right,0.9019,4,0.0625,0,54,54,27,1,stimuli/objects/swissarmyknife01a.jpg,old,left,118,,,,,,,,
,,,,,,,,21,,2021-12-20_14h20.25.047,MemLear_ses-01_part-02_label-phase2,2020.1.3,Win32,60,right,0.5282,4,0.1916,0,55,55,49,1,stimuli/objects/pitcher02b.jpg,old,left,140,,,,,,,,
,,,,,,,,21,,2021-12-20_14h20.25.047,MemLear_ses-01_part-02_label-phase2,2020.1.3,Win32,60,right,0.5905,4,0.3317,0,56,56,61,1,stimuli/objects/phonejack.jpg,old,left,152,,,,,,,,
,,,,,,,,21,,2021-12-20_14h20.25.047,MemLear_ses-01_part-02_label-phase2,2020.1.3,Win32,60,right,0.6209,4,0.2105,0,57,57,29,1,stimuli/objects/battery02b.jpg,old,left,120,,,,,,,,
,,,,,,,,21,,2021-12-20_14h20.25.047,MemLear_ses-01_part-02_label-phase2,2020.1.3,Win32,60,right,0.7554,4,0.2244,0,58,58,78,1,stimuli/objects/bottleopener01.jpg,new,right,169,,,,,,,,
,,,,,,,,21,,2021-12-20_14h20.25.047,MemLear_ses-01_part-02_label-phase2,2020.1.3,Win32,60,right,0.4984,4,0.0757,0,59,59,48,1,stimuli/objects/freezer02.jpg,old,left,139,,,,,,,,
,,,,,,,,21,,2021-12-20_14h20.25.047,MemLear_ses-01_part-02_label-phase2,2020.1.3,Win32,60,right,0.4725,4,0.0627,0,60,60,62,1,stimuli/objects/funnel.jpg,old,left,153,,,,,,,,
,,,,,,,,21,,2021-12-20_14h20.25.047,MemLear_ses-01_part-02_label-phase2,2020.1.3,Win32,60,right,0.5725,4,0.0257,0,61,61,26,1,stimuli/objects/tableknife02.jpg,new,right,117,,,,,,,,
,,,,,,,,21,,2021-12-20_14h20.25.047,MemLear_ses-01_part-02_label-phase2,2020.1.3,Win32,60,right,0.7645,4,0.0525,0,62,62,87,1,stimuli/objects/corkscrew03a.jpg,new,right,178,,,,,,,,
,,,,,,,,21,,2021-12-20_14h20.25.047,MemLear_ses-01_part-02_label-phase2,2020.1.3,Win32,60,right,0.6047,4,0.1846,0,63,63,82,1,stimuli/objects/antenna.jpg,new,right,173,,,,,,,,
,,,,,,,,21,,2021-12-20_14h20.25.047,MemLear_ses-01_part-02_label-phase2,2020.1.3,Win32,60,right,0.8856,4,0.0378,0,64,64,89,1,stimuli/objects/faxmachine.jpg,old,left,180,,,,,,,,
,,,,,,,,21,,2021-12-20_14h20.25.047,MemLear_ses-01_part-02_label-phase2,2020.1.3,Win32,60,right,0.59,4,0.0004,0,65,65,17,1,stimuli/objects/wateringcan.jpg,old,left,108,,,,,,,,
,,,,,,,,21,,2021-12-20_14h20.25.047,MemLear_ses-01_part-02_label-phase2,2020.1.3,Win32,60,right,0.8017,4,0.0606,0,66,66,19,1,stimuli/objects/hockeygoaliepad.jpg,new,right,110,,,,,,,,
,,,,,,,,21,,2021-12-20_14h20.25.047,MemLear_ses-01_part-02_label-phase2,2020.1.3,Win32,60,right,0.6135,4,0.5316,0,67,67,44,1,stimuli/objects/outletadapter.jpg,new,right,135,,,,,,,,
,,,,,,,,21,,2021-12-20_14h20.25.047,MemLear_ses-01_part-02_label-phase2,2020.1.3,Win32,60,right,1.4713,4,0.4766,0,68,68,50,1,stimuli/objects/icepack.jpg,old,left,141,,,,,,,,
,,,,,,,,21,,2021-12-20_14h20.25.047,MemLear_ses-01_part-02_label-phase2,2020.1.3,Win32,60,right,1.2952,4,0.1201,0,69,69,41,1,stimuli/objects/spatula03.jpg,old,left,132,,,,,,,,
,,,,,,,,21,,2021-12-20_14h20.25.047,MemLear_ses-01_part-02_label-phase2,2020.1.3,Win32,60,right,0.6049,4,0.6083,0,70,70,12,1,stimuli/objects/styrofoamcup.jpg,new,right,103,,,,,,,,
,,,,,,,,21,,2021-12-20_14h20.25.047,MemLear_ses-01_part-02_label-phase2,2020.1.3,Win32,60,left,1.1004,4,0.0896,0,71,71,31,1,stimuli/objects/swimgoggles.jpg,old,left,122,,,,,,,,
,,,,,,,,21,,2021-12-20_14h20.25.047,MemLear_ses-01_part-02_label-phase2,2020.1.3,Win32,60,right,1.004,4,0.0202,0,72,72,6,1,stimuli/objects/nintendods.jpg,old,left,97,,,,,,,,
,,,,,,,,21,,2021-12-20_14h20.25.047,MemLear_ses-01_part-02_label-phase2,2020.1.3,Win32,60,right,1.1956,3,0.0912,0,73,73,65,1,stimuli/objects/espressomachine.jpg,new,right,156,,,,,,,,
,,,,,,,,21,,2021-12-20_14h20.25.047,MemLear_ses-01_part-02_label-phase2,2020.1.3,Win32,60,left,1.6011,4,0.0855,0,74,74,57,1,stimuli/objects/fonduefork01.jpg,old,left,148,,,,,,,,
,,,,,,,,21,,2021-12-20_14h20.25.047,MemLear_ses-01_part-02_label-phase2,2020.1.3,Win32,60,right,2.1528,4,0.1876,0,75,75,2,1,stimuli/objects/floppydisk02a.jpg,new,right,93,,,,,,,,
,,,,,,,,21,,2021-12-20_14h20.25.047,MemLear_ses-01_part-02_label-phase2,2020.1.3,Win32,60,right,0.8603,4,0.2144,0,76,76,83,1,stimuli/objects/airconditioner.jpg,new,right,174,,,,,,,,
,,,,,,,,21,,2021-12-20_14h20.25.047,MemLear_ses-01_part-02_label-phase2,2020.1.3,Win32,60,right,0.9004,4,0.2264,0,77,77,20,1,stimuli/objects/spicerack.jpg,old,left,111,,,,,,,,
,,,,,,,,21,,2021-12-20_14h20.25.047,MemLear_ses-01_part-02_label-phase2,2020.1.3,Win32,60,right,1.0985,4,0.2349,0,78,78,81,1,stimuli/objects/lawnmower.jpg,old,left,172,,,,,,,,
,,,,,,,,21,,2021-12-20_14h20.25.047,MemLear_ses-01_part-02_label-phase2,2020.1.3,Win32,60,right,1.042,4,0.4569,0,79,79,55,1,stimuli/objects/gps.jpg,old,left,146,,,,,,,,
,,,,,,,,21,,2021-12-20_14h20.25.047,MemLear_ses-01_part-02_label-phase2,2020.1.3,Win32,60,right,3.1206,4,0.3206,0,80,80,54,1,stimuli/objects/wafflemaker.jpg,new,right,145,,,,,,,,
,,,,,,,,21,,2021-12-20_14h20.25.047,MemLear_ses-01_part-02_label-phase2,2020.1.3,Win32,60,right,0.8913,4,0.1944,0,81,81,34,1,stimuli/objects/potatomasher03b.jpg,old,left,125,,,,,,,,
,,,,,,,,21,,2021-12-20_14h20.25.047,MemLear_ses-01_part-02_label-phase2,2020.1.3,Win32,60,right,0.6547,1,2.1927,0,82,82,35,1,stimuli/objects/adjustablewrench01b.jpg,old,left,126,,,,,,,,
,,,,,,,,21,,2021-12-20_14h20.25.047,MemLear_ses-01_part-02_label-phase2,2020.1.3,Win32,60,right,1.2549,3,0.9763,0,83,83,0,1,stimuli/objects/wire.jpg,new,right,91,,,,,,,,
,,,,,,,,21,,2021-12-20_14h20.25.047,MemLear_ses-01_part-02_label-phase2,2020.1.3,Win32,60,right,0.8421,3,0.6413,0,84,84,68,1,stimuli/objects/cakeplatter.jpg,old,left,159,,,,,,,,
,,,,,,,,21,,2021-12-20_14h20.25.047,MemLear_ses-01_part-02_label-phase2,2020.1.3,Win32,60,right,0.9575,4,0.2157,0,85,85,9,1,stimuli/objects/hockeypuck.jpg,new,right,100,,,,,,,,
,,,,,,,,21,,2021-12-20_14h20.25.047,MemLear_ses-01_part-02_label-phase2,2020.1.3,Win32,60,right,0.5112,4,0.0699,0,86,86,63,1,stimuli/objects/grill.jpg,old,left,154,,,,,,,,
,,,,,,,,21,,2021-12-20_14h20.25.047,MemLear_ses-01_part-02_label-phase2,2020.1.3,Win32,60,right,0.5493,4,0.1696,0,87,87,47,1,stimuli/objects/umbrella04.jpg,old,left,138,,,,,,,,
,,,,,,,,21,,2021-12-20_14h20.25.047,MemLear_ses-01_part-02_label-phase2,2020.1.3,Win32,60,left,1.1684,4,0.1718,0,88,88,71,1,stimuli/objects/cuttingpliers02.jpg,old,left,162,,,,,,,,
,,,,,,,,21,,2021-12-20_14h20.25.047,MemLear_ses-01_part-02_label-phase2,2020.1.3,Win32,60,right,0.8181,4,0.3893,0,89,89,28,1,stimuli/objects/powercable.jpg,old,left,119,,,,,,,,
,,,,,,,,21,,2021-12-20_14h20.25.047,MemLear_ses-01_part-02_label-phase2,2020.1.3,Win32,60,,,,,,,,,,,,,,space,75.2048,0,1,1,1,1,condition_files/ImagesforRecog2_2.csv
