instructions_loop.thisRepN,instructions_loop.thisTrialN,instructions_loop.thisN,instructions_loop.thisIndex,instructions_loop.ran,text1,text2,text3,participant,Expra Code,date,expName,psychopyVersion,OS,frameRate,recog_resp.keys,recog_resp.rt,conf_resp.keys,conf_resp.rt,recog_loop.thisRepN,recog_loop.thisTrialN,recog_loop.thisN,recog_loop.thisIndex,recog_loop.ran,images,modal_categ,type,corr_ans,order,key_resp_break.keys,key_resp_break.rt,list_loop.thisRepN,list_loop.thisTrialN,list_loop.thisN,list_loop.thisIndex,list_loop.ran,recog_list
0,0,0,0,1,Welcome to the last phase of this experiment!,.,Please press the space bar to continue,31,,2022-01-10_20h07.47.592,MemLear_ses-01_part-02_label-phase2,2020.1.3,Win32,60,,,,,,,,,,,,,,,,,,,,,,
0,1,1,1,1,.,"In this phase, you will see some objects. 

For each object, you should indicate whether you have seen it before during the experiment.

Press LEFT ARROW for YES
Press RIGHT ARROW for NO

",Please press the space bar to continue ,31,,2022-01-10_20h07.47.592,MemLear_ses-01_part-02_label-phase2,2020.1.3,Win32,60,,,,,,,,,,,,,,,,,,,,,,
,,,,,,,,31,,2022-01-10_20h07.47.592,MemLear_ses-01_part-02_label-phase2,2020.1.3,Win32,60,left,3.2689,3,1.9546,0,0,0,42,1,stimuli/objects/microwave.jpg,Kitchen & utensil,new,right,43,,,,,,,,
,,,,,,,,31,,2022-01-10_20h07.47.592,MemLear_ses-01_part-02_label-phase2,2020.1.3,Win32,60,left,1.2306,4,0.5611,0,1,1,52,1,stimuli/objects/coffeemaker.jpg,Kitchen & utensil,old,left,53,,,,,,,,
,,,,,,,,31,,2022-01-10_20h07.47.592,MemLear_ses-01_part-02_label-phase2,2020.1.3,Win32,60,left,5.3762,3,0.4456,0,2,2,25,1,stimuli/objects/faxmachine.jpg,Electronic device & accessory,old,left,26,,,,,,,,
,,,,,,,,31,,2022-01-10_20h07.47.592,MemLear_ses-01_part-02_label-phase2,2020.1.3,Win32,60,right,5.6616,2,6.1424,0,3,3,29,1,stimuli/objects/walkietalkie.jpg,Electronic device & accessory,old,left,30,,,,,,,,
,,,,,,,,31,,2022-01-10_20h07.47.592,MemLear_ses-01_part-02_label-phase2,2020.1.3,Win32,60,left,0.9839,4,0.3013,0,4,4,31,1,stimuli/objects/filmnegative.jpg,Electronic device & accessory,old,left,32,,,,,,,,
,,,,,,,,31,,2022-01-10_20h07.47.592,MemLear_ses-01_part-02_label-phase2,2020.1.3,Win32,60,right,2.6137,2,0.5645,0,5,5,84,1,stimuli/objects/podium.jpg,Outdoor activity & sport item,old,left,85,,,,,,,,
,,,,,,,,31,,2022-01-10_20h07.47.592,MemLear_ses-01_part-02_label-phase2,2020.1.3,Win32,60,left,0.999,4,0.2875,0,6,6,8,1,stimuli/objects/cameracase01a.jpg,Electronic device & accessory,old,left,9,,,,,,,,
,,,,,,,,31,,2022-01-10_20h07.47.592,MemLear_ses-01_part-02_label-phase2,2020.1.3,Win32,60,left,1.4316,4,0.2763,0,7,7,16,1,stimuli/objects/knifesharpener.jpg,Hand labour tool & accessory,old,left,17,,,,,,,,
,,,,,,,,31,,2022-01-10_20h07.47.592,MemLear_ses-01_part-02_label-phase2,2020.1.3,Win32,60,right,1.3969,1,0.5927,0,8,8,48,1,stimuli/objects/toasteroven.jpg,Kitchen & utensil,old,left,49,,,,,,,,
,,,,,,,,31,,2022-01-10_20h07.47.592,MemLear_ses-01_part-02_label-phase2,2020.1.3,Win32,60,left,0.901,4,0.3371,0,9,9,2,1,stimuli/objects/martiniglass01b.jpg,Kitchen & utensil,old,left,3,,,,,,,,
,,,,,,,,31,,2022-01-10_20h07.47.592,MemLear_ses-01_part-02_label-phase2,2020.1.3,Win32,60,right,1.5903,1,0.2838,0,10,10,82,1,stimuli/objects/hockeygoaliepad.jpg,Outdoor activity & sport item,new,right,83,,,,,,,,
,,,,,,,,31,,2022-01-10_20h07.47.592,MemLear_ses-01_part-02_label-phase2,2020.1.3,Win32,60,left,0.7768,4,0.3387,0,11,11,63,1,stimuli/objects/peppermill02b.jpg,Kitchen & utensil,old,left,64,,,,,,,,
,,,,,,,,31,,2022-01-10_20h07.47.592,MemLear_ses-01_part-02_label-phase2,2020.1.3,Win32,60,right,1.2569,1,0.2759,0,12,12,26,1,stimuli/objects/nutcracker01.jpg,Kitchen & utensil,new,right,27,,,,,,,,
,,,,,,,,31,,2022-01-10_20h07.47.592,MemLear_ses-01_part-02_label-phase2,2020.1.3,Win32,60,right,3.6446,2,0.8199,0,13,13,79,1,stimuli/objects/espressomachine.jpg,Kitchen & utensil,new,right,80,,,,,,,,
,,,,,,,,31,,2022-01-10_20h07.47.592,MemLear_ses-01_part-02_label-phase2,2020.1.3,Win32,60,left,0.8831,4,0.2544,0,14,14,4,1,stimuli/objects/fanheater.jpg,Electronic device & accessory,old,left,5,,,,,,,,
,,,,,,,,31,,2022-01-10_20h07.47.592,MemLear_ses-01_part-02_label-phase2,2020.1.3,Win32,60,left,3.0707,2,3.535,0,15,15,24,1,stimuli/objects/fuse.jpg,Electronic device & accessory,new,right,25,,,,,,,,
,,,,,,,,31,,2022-01-10_20h07.47.592,MemLear_ses-01_part-02_label-phase2,2020.1.3,Win32,60,right,1.6773,2,0.3748,0,16,16,83,1,stimuli/objects/spotlight.jpg,Electronic device & accessory,old,left,84,,,,,,,,
,,,,,,,,31,,2022-01-10_20h07.47.592,MemLear_ses-01_part-02_label-phase2,2020.1.3,Win32,60,left,2.512,3,0.38,0,17,17,54,1,stimuli/objects/lectern01.jpg,Electronic device & accessory,old,left,55,,,,,,,,
,,,,,,,,31,,2022-01-10_20h07.47.592,MemLear_ses-01_part-02_label-phase2,2020.1.3,Win32,60,right,1.2445,1,0.2937,0,18,18,22,1,stimuli/objects/outletadapter.jpg,Electronic device & accessory,new,right,23,,,,,,,,
,,,,,,,,31,,2022-01-10_20h07.47.592,MemLear_ses-01_part-02_label-phase2,2020.1.3,Win32,60,left,0.9025,4,0.2913,0,19,19,27,1,stimuli/objects/surfboard.jpg,Outdoor activity & sport item,old,left,28,,,,,,,,
,,,,,,,,31,,2022-01-10_20h07.47.592,MemLear_ses-01_part-02_label-phase2,2020.1.3,Win32,60,right,2.1816,2,0.6376,0,20,20,62,1,stimuli/objects/garlicpress02a.jpg,Kitchen & utensil,new,right,63,,,,,,,,
,,,,,,,,31,,2022-01-10_20h07.47.592,MemLear_ses-01_part-02_label-phase2,2020.1.3,Win32,60,right,5.8637,2,0.3056,0,21,21,41,1,stimuli/objects/beachumbrella01.jpg,Outdoor activity & sport item,old,left,42,,,,,,,,
,,,,,,,,31,,2022-01-10_20h07.47.592,MemLear_ses-01_part-02_label-phase2,2020.1.3,Win32,60,left,0.8076,4,0.2524,0,22,22,59,1,stimuli/objects/securitycamera.jpg,Electronic device & accessory,old,left,60,,,,,,,,
,,,,,,,,31,,2022-01-10_20h07.47.592,MemLear_ses-01_part-02_label-phase2,2020.1.3,Win32,60,right,13.9229,2,0.5787,0,23,23,11,1,stimuli/objects/usbcable01a.jpg,Electronic device & accessory,new,right,12,,,,,,,,
,,,,,,,,31,,2022-01-10_20h07.47.592,MemLear_ses-01_part-02_label-phase2,2020.1.3,Win32,60,left,1.8235,4,0.4672,0,24,24,70,1,stimuli/objects/heatpump.jpg,Electronic device & accessory,old,left,71,,,,,,,,
,,,,,,,,31,,2022-01-10_20h07.47.592,MemLear_ses-01_part-02_label-phase2,2020.1.3,Win32,60,left,2.834,3,0.5824,0,25,25,38,1,stimuli/objects/caulking.jpg,Hand labour tool & accessory,old,left,39,,,,,,,,
,,,,,,,,31,,2022-01-10_20h07.47.592,MemLear_ses-01_part-02_label-phase2,2020.1.3,Win32,60,left,0.9052,4,1.5425,0,26,26,34,1,stimuli/objects/knife03.jpg,Kitchen & utensil,old,left,35,,,,,,,,
,,,,,,,,31,,2022-01-10_20h07.47.592,MemLear_ses-01_part-02_label-phase2,2020.1.3,Win32,60,right,1.1296,1,0.2661,0,27,27,28,1,stimuli/objects/crocodileclips.jpg,Electronic device & accessory,old,left,29,,,,,,,,
,,,,,,,,31,,2022-01-10_20h07.47.592,MemLear_ses-01_part-02_label-phase2,2020.1.3,Win32,60,left,0.9657,4,0.3613,0,28,28,51,1,stimuli/objects/photocopier.jpg,Electronic device & accessory,old,left,52,,,,,,,,
,,,,,,,,31,,2022-01-10_20h07.47.592,MemLear_ses-01_part-02_label-phase2,2020.1.3,Win32,60,left,0.9479,4,0.3734,0,29,29,75,1,stimuli/objects/shotglass.jpg,Kitchen & utensil,old,left,76,,,,,,,,
,,,,,,,,31,,2022-01-10_20h07.47.592,MemLear_ses-01_part-02_label-phase2,2020.1.3,Win32,60,left,3.9447,3,0.2832,0,30,30,56,1,stimuli/objects/chocolatefonduedish.jpg,Kitchen & utensil,old,left,57,,,,,,,,
,,,,,,,,31,,2022-01-10_20h07.47.592,MemLear_ses-01_part-02_label-phase2,2020.1.3,Win32,60,right,0.7509,1,0.2501,0,31,31,80,1,stimuli/objects/ladder.jpg,Hand labour tool & accessory,new,right,81,,,,,,,,
,,,,,,,,31,,2022-01-10_20h07.47.592,MemLear_ses-01_part-02_label-phase2,2020.1.3,Win32,60,right,0.9466,1,0.3086,0,32,32,78,1,stimuli/objects/wateringcan.jpg,Hand labour tool & accessory,old,left,79,,,,,,,,
,,,,,,,,31,,2022-01-10_20h07.47.592,MemLear_ses-01_part-02_label-phase2,2020.1.3,Win32,60,right,1.1632,1,0.7327,0,33,33,9,1,stimuli/objects/aluminiumfoil.jpg,Kitchen & utensil,new,right,10,,,,,,,,
,,,,,,,,31,,2022-01-10_20h07.47.592,MemLear_ses-01_part-02_label-phase2,2020.1.3,Win32,60,left,6.1897,3,0.5541,0,34,34,71,1,stimuli/objects/contactlens.jpg,Kitchen & utensil,new,right,72,,,,,,,,
,,,,,,,,31,,2022-01-10_20h07.47.592,MemLear_ses-01_part-02_label-phase2,2020.1.3,Win32,60,right,4.9722,2,0.4121,0,35,35,77,1,stimuli/objects/alarmclock01.jpg,Electronic device & accessory,new,right,78,,,,,,,,
,,,,,,,,31,,2022-01-10_20h07.47.592,MemLear_ses-01_part-02_label-phase2,2020.1.3,Win32,60,left,1.8571,4,0.4755,0,36,36,65,1,stimuli/objects/cuttingpliers02.jpg,Hand labour tool & accessory,old,left,66,,,,,,,,
,,,,,,,,31,,2022-01-10_20h07.47.592,MemLear_ses-01_part-02_label-phase2,2020.1.3,Win32,60,right,3.0079,2,0.2714,0,37,37,50,1,stimuli/objects/hockeygoaliemask.jpg,Outdoor activity & sport item,new,right,51,,,,,,,,
,,,,,,,,31,,2022-01-10_20h07.47.592,MemLear_ses-01_part-02_label-phase2,2020.1.3,Win32,60,left,1.5936,4,1.1608,0,38,38,1,1,stimuli/objects/fork03c.jpg,Kitchen & utensil,old,left,2,,,,,,,,
,,,,,,,,31,,2022-01-10_20h07.47.592,MemLear_ses-01_part-02_label-phase2,2020.1.3,Win32,60,right,2.8323,2,0.5612,0,39,39,44,1,stimuli/objects/lightbulb01.jpg,Electronic device & accessory,old,left,45,,,,,,,,
,,,,,,,,31,,2022-01-10_20h07.47.592,MemLear_ses-01_part-02_label-phase2,2020.1.3,Win32,60,right,1.6544,4,0.3091,0,40,40,36,1,stimuli/objects/microphone01.jpg,Electronic device & accessory,new,right,37,,,,,,,,
,,,,,,,,31,,2022-01-10_20h07.47.592,MemLear_ses-01_part-02_label-phase2,2020.1.3,Win32,60,left,1.5741,4,0.4705,0,41,41,60,1,stimuli/objects/payphone.jpg,Electronic device & accessory,old,left,61,,,,,,,,
,,,,,,,,31,,2022-01-10_20h07.47.592,MemLear_ses-01_part-02_label-phase2,2020.1.3,Win32,60,left,3.5285,3,0.605,0,42,42,20,1,stimuli/objects/whisk.jpg,Kitchen & utensil,old,left,21,,,,,,,,
,,,,,,,,31,,2022-01-10_20h07.47.592,MemLear_ses-01_part-02_label-phase2,2020.1.3,Win32,60,left,0.9827,4,0.2968,0,43,43,23,1,stimuli/objects/dishrack.jpg,Kitchen & utensil,old,left,24,,,,,,,,
,,,,,,,,31,,2022-01-10_20h07.47.592,MemLear_ses-01_part-02_label-phase2,2020.1.3,Win32,60,left,0.789,4,0.3448,0,44,44,57,1,stimuli/objects/spatula04.jpg,Kitchen & utensil,old,left,58,,,,,,,,
,,,,,,,,31,,2022-01-10_20h07.47.592,MemLear_ses-01_part-02_label-phase2,2020.1.3,Win32,60,right,1.6601,3,1.5126,0,45,45,72,1,stimuli/objects/cellphone.jpg,Electronic device & accessory,new,right,73,,,,,,,,
,,,,,,,,31,,2022-01-10_20h07.47.592,MemLear_ses-01_part-02_label-phase2,2020.1.3,Win32,60,left,2.5767,4,0.3002,0,46,46,81,1,stimuli/objects/toyhockeystick01.jpg,Outdoor activity & sport item,old,left,82,,,,,,,,
,,,,,,,,31,,2022-01-10_20h07.47.592,MemLear_ses-01_part-02_label-phase2,2020.1.3,Win32,60,left,0.9629,4,1.492,0,47,47,49,1,stimuli/objects/usbkey.jpg,Electronic device & accessory,old,left,50,,,,,,,,
,,,,,,,,31,,2022-01-10_20h07.47.592,MemLear_ses-01_part-02_label-phase2,2020.1.3,Win32,60,right,1.2539,4,0.5217,0,48,48,86,1,stimuli/objects/floppydisk02a.jpg,Electronic device & accessory,new,right,87,,,,,,,,
,,,,,,,,31,,2022-01-10_20h07.47.592,MemLear_ses-01_part-02_label-phase2,2020.1.3,Win32,60,left,1.4862,4,0.2457,0,49,49,58,1,stimuli/objects/servingspoon01.jpg,Kitchen & utensil,old,left,59,,,,,,,,
,,,,,,,,31,,2022-01-10_20h07.47.592,MemLear_ses-01_part-02_label-phase2,2020.1.3,Win32,60,left,1.4351,4,0.4576,0,50,50,89,1,stimuli/objects/minifridge.jpg,Kitchen & utensil,old,left,90,,,,,,,,
,,,,,,,,31,,2022-01-10_20h07.47.592,MemLear_ses-01_part-02_label-phase2,2020.1.3,Win32,60,left,0.8802,4,0.4859,0,51,51,35,1,stimuli/objects/fryingpan02a.jpg,Kitchen & utensil,old,left,36,,,,,,,,
,,,,,,,,31,,2022-01-10_20h07.47.592,MemLear_ses-01_part-02_label-phase2,2020.1.3,Win32,60,left,1.4587,3,0.3008,0,52,52,15,1,stimuli/objects/spicerack.jpg,Kitchen & utensil,old,left,16,,,,,,,,
,,,,,,,,31,,2022-01-10_20h07.47.592,MemLear_ses-01_part-02_label-phase2,2020.1.3,Win32,60,left,0.9164,4,0.2605,0,53,53,43,1,stimuli/objects/umbrella04.jpg,Outdoor activity & sport item,old,left,44,,,,,,,,
,,,,,,,,31,,2022-01-10_20h07.47.592,MemLear_ses-01_part-02_label-phase2,2020.1.3,Win32,60,left,1.0949,4,0.3142,0,54,54,0,1,stimuli/objects/ipod.jpg,Electronic device & accessory,old,left,1,,,,,,,,
,,,,,,,,31,,2022-01-10_20h07.47.592,MemLear_ses-01_part-02_label-phase2,2020.1.3,Win32,60,right,1.7932,3,1.2335,0,55,55,69,1,stimuli/objects/scanner.jpg,Electronic device & accessory,old,left,70,,,,,,,,
,,,,,,,,31,,2022-01-10_20h07.47.592,MemLear_ses-01_part-02_label-phase2,2020.1.3,Win32,60,left,2.0992,4,5.7587,0,56,56,5,1,stimuli/objects/tablesaw.jpg,Hand labour tool & accessory,old,left,6,,,,,,,,
,,,,,,,,31,,2022-01-10_20h07.47.592,MemLear_ses-01_part-02_label-phase2,2020.1.3,Win32,60,left,5.3456,2,0.3249,0,57,57,3,1,stimuli/objects/charcoalbarbecue.jpg,Outdoor activity & sport item,old,left,4,,,,,,,,
,,,,,,,,31,,2022-01-10_20h07.47.592,MemLear_ses-01_part-02_label-phase2,2020.1.3,Win32,60,right,1.4227,3,1.0147,0,58,58,88,1,stimuli/objects/cuttingboard.jpg,Kitchen & utensil,old,left,89,,,,,,,,
,,,,,,,,31,,2022-01-10_20h07.47.592,MemLear_ses-01_part-02_label-phase2,2020.1.3,Win32,60,left,1.174,4,0.5468,0,59,59,64,1,stimuli/objects/telephone01b.jpg,Electronic device & accessory,old,left,65,,,,,,,,
,,,,,,,,31,,2022-01-10_20h07.47.592,MemLear_ses-01_part-02_label-phase2,2020.1.3,Win32,60,right,1.912,4,1.0098,0,60,60,68,1,stimuli/objects/bowl02a.jpg,Kitchen & utensil,old,left,69,,,,,,,,
,,,,,,,,31,,2022-01-10_20h07.47.592,MemLear_ses-01_part-02_label-phase2,2020.1.3,Win32,60,right,1.4907,2,1.0766,0,61,61,32,1,stimuli/objects/thermos.jpg,Kitchen & utensil,new,right,33,,,,,,,,
,,,,,,,,31,,2022-01-10_20h07.47.592,MemLear_ses-01_part-02_label-phase2,2020.1.3,Win32,60,right,1.3976,3,2.2349,0,62,62,74,1,stimuli/objects/speaker04.jpg,Electronic device & accessory,new,right,75,,,,,,,,
,,,,,,,,31,,2022-01-10_20h07.47.592,MemLear_ses-01_part-02_label-phase2,2020.1.3,Win32,60,right,1.364,4,0.3384,0,63,63,12,1,stimuli/objects/fanblades.jpg,Electronic device & accessory,new,right,13,,,,,,,,
,,,,,,,,31,,2022-01-10_20h07.47.592,MemLear_ses-01_part-02_label-phase2,2020.1.3,Win32,60,left,1.3081,4,0.3421,0,64,64,30,1,stimuli/objects/cleaver01.jpg,Kitchen & utensil,old,left,31,,,,,,,,
,,,,,,,,31,,2022-01-10_20h07.47.592,MemLear_ses-01_part-02_label-phase2,2020.1.3,Win32,60,right,2.4249,2,0.2706,0,65,65,53,1,stimuli/objects/tripod01.jpg,Electronic device & accessory,new,right,54,,,,,,,,
,,,,,,,,31,,2022-01-10_20h07.47.592,MemLear_ses-01_part-02_label-phase2,2020.1.3,Win32,60,left,5.3812,1,0.6587,0,66,66,66,1,stimuli/objects/coffeemachine.jpg,Electronic device & accessory,old,left,67,,,,,,,,
,,,,,,,,31,,2022-01-10_20h07.47.592,MemLear_ses-01_part-02_label-phase2,2020.1.3,Win32,60,left,1.4736,2,0.2907,0,67,67,18,1,stimuli/objects/soundmixer.jpg,Electronic device & accessory,old,left,19,,,,,,,,
,,,,,,,,31,,2022-01-10_20h07.47.592,MemLear_ses-01_part-02_label-phase2,2020.1.3,Win32,60,left,1.0659,3,3.0772,0,68,68,7,1,stimuli/objects/expansioncard.jpg,Electronic device & accessory,old,left,8,,,,,,,,
,,,,,,,,31,,2022-01-10_20h07.47.592,MemLear_ses-01_part-02_label-phase2,2020.1.3,Win32,60,right,1.6266,3,1.5507,0,69,69,45,1,stimuli/objects/studiolight.jpg,Electronic device & accessory,new,right,46,,,,,,,,
,,,,,,,,31,,2022-01-10_20h07.47.592,MemLear_ses-01_part-02_label-phase2,2020.1.3,Win32,60,right,1.3446,2,0.3081,0,70,70,6,1,stimuli/objects/stovetop.jpg,Kitchen & utensil,new,right,7,,,,,,,,
,,,,,,,,31,,2022-01-10_20h07.47.592,MemLear_ses-01_part-02_label-phase2,2020.1.3,Win32,60,right,1.6395,4,1.1723,0,71,71,33,1,stimuli/objects/powercable.jpg,Electronic device & accessory,old,left,34,,,,,,,,
,,,,,,,,31,,2022-01-10_20h07.47.592,MemLear_ses-01_part-02_label-phase2,2020.1.3,Win32,60,right,3.3163,2,1.2011,0,72,72,21,1,stimuli/objects/avcable.jpg,Electronic device & accessory,old,left,22,,,,,,,,
,,,,,,,,31,,2022-01-10_20h07.47.592,MemLear_ses-01_part-02_label-phase2,2020.1.3,Win32,60,right,3.6003,2,0.6434,0,73,73,40,1,stimuli/objects/beermug01a.jpg,Kitchen & utensil,old,left,41,,,,,,,,
,,,,,,,,31,,2022-01-10_20h07.47.592,MemLear_ses-01_part-02_label-phase2,2020.1.3,Win32,60,right,24.6634,1,1.8165,0,74,74,39,1,stimuli/objects/screwdriver04b.jpg,Hand labour tool & accessory,new,right,40,,,,,,,,
,,,,,,,,31,,2022-01-10_20h07.47.592,MemLear_ses-01_part-02_label-phase2,2020.1.3,Win32,60,left,0.9694,4,0.8127,0,75,75,85,1,stimuli/objects/muffintray01.jpg,Kitchen & utensil,old,left,86,,,,,,,,
,,,,,,,,31,,2022-01-10_20h07.47.592,MemLear_ses-01_part-02_label-phase2,2020.1.3,Win32,60,left,0.8688,4,0.317,0,76,76,37,1,stimuli/objects/electricoutlet.jpg,Electronic device & accessory,old,left,38,,,,,,,,
,,,,,,,,31,,2022-01-10_20h07.47.592,MemLear_ses-01_part-02_label-phase2,2020.1.3,Win32,60,right,0.9761,4,0.271,0,77,77,61,1,stimuli/objects/cork02.jpg,Kitchen & utensil,new,right,62,,,,,,,,
,,,,,,,,31,,2022-01-10_20h07.47.592,MemLear_ses-01_part-02_label-phase2,2020.1.3,Win32,60,right,3.2764,2,0.3323,0,78,78,17,1,stimuli/objects/ethernetcable02.jpg,Electronic device & accessory,new,right,18,,,,,,,,
,,,,,,,,31,,2022-01-10_20h07.47.592,MemLear_ses-01_part-02_label-phase2,2020.1.3,Win32,60,left,1.3549,2,4.3537,0,79,79,14,1,stimuli/objects/pastaspoon.jpg,Kitchen & utensil,old,left,15,,,,,,,,
,,,,,,,,31,,2022-01-10_20h07.47.592,MemLear_ses-01_part-02_label-phase2,2020.1.3,Win32,60,right,1.7267,3,0.9613,0,80,80,19,1,stimuli/objects/fan.jpg,Electronic device & accessory,new,right,20,,,,,,,,
,,,,,,,,31,,2022-01-10_20h07.47.592,MemLear_ses-01_part-02_label-phase2,2020.1.3,Win32,60,right,1.2736,3,0.8292,0,81,81,47,1,stimuli/objects/jug.jpg,Kitchen & utensil,new,right,48,,,,,,,,
,,,,,,,,31,,2022-01-10_20h07.47.592,MemLear_ses-01_part-02_label-phase2,2020.1.3,Win32,60,right,1.3917,3,3.0931,0,82,82,10,1,stimuli/objects/adjustablewrench01b.jpg,Hand labour tool & accessory,old,left,11,,,,,,,,
,,,,,,,,31,,2022-01-10_20h07.47.592,MemLear_ses-01_part-02_label-phase2,2020.1.3,Win32,60,right,1.2764,3,2.352,0,83,83,73,1,stimuli/objects/djmixer02.jpg,Electronic device & accessory,old,left,74,,,,,,,,
,,,,,,,,31,,2022-01-10_20h07.47.592,MemLear_ses-01_part-02_label-phase2,2020.1.3,Win32,60,left,3.414,4,0.2727,0,84,84,13,1,stimuli/objects/cakeplatter.jpg,Kitchen & utensil,old,left,14,,,,,,,,
,,,,,,,,31,,2022-01-10_20h07.47.592,MemLear_ses-01_part-02_label-phase2,2020.1.3,Win32,60,left,1.1985,1,0.625,0,85,85,76,1,stimuli/objects/blender.jpg,Kitchen & utensil,new,right,77,,,,,,,,
,,,,,,,,31,,2022-01-10_20h07.47.592,MemLear_ses-01_part-02_label-phase2,2020.1.3,Win32,60,left,3.5492,3,0.2914,0,86,86,46,1,stimuli/objects/footballhelmet.jpg,Outdoor activity & sport item,new,right,47,,,,,,,,
,,,,,,,,31,,2022-01-10_20h07.47.592,MemLear_ses-01_part-02_label-phase2,2020.1.3,Win32,60,right,1.3333,3,1.9301,0,87,87,87,1,stimuli/objects/cassettetape01a.jpg,Electronic device & accessory,new,right,88,,,,,,,,
,,,,,,,,31,,2022-01-10_20h07.47.592,MemLear_ses-01_part-02_label-phase2,2020.1.3,Win32,60,left,1.3635,4,0.2939,0,88,88,55,1,stimuli/objects/fonduefork01.jpg,Kitchen & utensil,old,left,56,,,,,,,,
,,,,,,,,31,,2022-01-10_20h07.47.592,MemLear_ses-01_part-02_label-phase2,2020.1.3,Win32,60,right,2.5881,3,0.5747,0,89,89,67,1,stimuli/objects/foodprocessor.jpg,Kitchen & utensil,new,right,68,,,,,,,,
,,,,,,,,31,,2022-01-10_20h07.47.592,MemLear_ses-01_part-02_label-phase2,2020.1.3,Win32,60,,,,,,,,,,,,,,,space,4.6228,0,0,0,0,1,condition_files/ImagesforRecog4_1.csv
,,,,,,,,31,,2022-01-10_20h07.47.592,MemLear_ses-01_part-02_label-phase2,2020.1.3,Win32,60,left,9.5574,3,0.3852,0,0,0,8,1,stimuli/objects/snowshovel.jpg,Hand labour tool & accessory,old,left,99,,,,,,,,
,,,,,,,,31,,2022-01-10_20h07.47.592,MemLear_ses-01_part-02_label-phase2,2020.1.3,Win32,60,right,2.2186,3,0.5253,0,1,1,49,1,stimuli/objects/carantenna.jpg,Electronic device & accessory,old,left,140,,,,,,,,
,,,,,,,,31,,2022-01-10_20h07.47.592,MemLear_ses-01_part-02_label-phase2,2020.1.3,Win32,60,right,1.4576,3,0.2653,0,2,2,14,1,stimuli/objects/taperecorder.jpg,Electronic device & accessory,old,left,105,,,,,,,,
,,,,,,,,31,,2022-01-10_20h07.47.592,MemLear_ses-01_part-02_label-phase2,2020.1.3,Win32,60,right,1.5439,4,0.4961,0,3,3,17,1,stimuli/objects/styrofoamcup.jpg,Kitchen & utensil,new,right,108,,,,,,,,
,,,,,,,,31,,2022-01-10_20h07.47.592,MemLear_ses-01_part-02_label-phase2,2020.1.3,Win32,60,left,1.0084,4,0.3885,0,4,4,44,1,stimuli/objects/ramekin01.jpg,Kitchen & utensil,old,left,135,,,,,,,,
,,,,,,,,31,,2022-01-10_20h07.47.592,MemLear_ses-01_part-02_label-phase2,2020.1.3,Win32,60,left,1.3875,4,0.2915,0,5,5,75,1,stimuli/objects/saltshaker03a.jpg,Kitchen & utensil,old,left,166,,,,,,,,
,,,,,,,,31,,2022-01-10_20h07.47.592,MemLear_ses-01_part-02_label-phase2,2020.1.3,Win32,60,left,1.795,4,0.2558,0,6,6,72,1,stimuli/objects/golfbag.jpg,Outdoor activity & sport item,old,left,163,,,,,,,,
,,,,,,,,31,,2022-01-10_20h07.47.592,MemLear_ses-01_part-02_label-phase2,2020.1.3,Win32,60,right,1.2088,4,0.4126,0,7,7,38,1,stimuli/objects/measuringspoon.jpg,Kitchen & utensil,old,left,129,,,,,,,,
,,,,,,,,31,,2022-01-10_20h07.47.592,MemLear_ses-01_part-02_label-phase2,2020.1.3,Win32,60,right,1.3971,3,0.6875,0,8,8,26,1,stimuli/objects/printer02.jpg,Electronic device & accessory,new,right,117,,,,,,,,
,,,,,,,,31,,2022-01-10_20h07.47.592,MemLear_ses-01_part-02_label-phase2,2020.1.3,Win32,60,left,3.5454,2,0.2769,0,9,9,23,1,stimuli/objects/shovel01.jpg,Hand labour tool & accessory,new,right,114,,,,,,,,
,,,,,,,,31,,2022-01-10_20h07.47.592,MemLear_ses-01_part-02_label-phase2,2020.1.3,Win32,60,right,1.1521,4,0.7041,0,10,10,62,1,stimuli/objects/hourglass.jpg,Kitchen & utensil,new,right,153,,,,,,,,
,,,,,,,,31,,2022-01-10_20h07.47.592,MemLear_ses-01_part-02_label-phase2,2020.1.3,Win32,60,right,1.2225,3,0.269,0,11,11,28,1,stimuli/objects/phonejack.jpg,Electronic device & accessory,old,left,119,,,,,,,,
,,,,,,,,31,,2022-01-10_20h07.47.592,MemLear_ses-01_part-02_label-phase2,2020.1.3,Win32,60,right,2.4158,1,1.1896,0,12,12,46,1,stimuli/objects/audiocablesplitter.jpg,Electronic device & accessory,old,left,137,,,,,,,,
,,,,,,,,31,,2022-01-10_20h07.47.592,MemLear_ses-01_part-02_label-phase2,2020.1.3,Win32,60,right,1.3942,2,0.2866,0,13,13,73,1,stimuli/objects/cashregister01.jpg,Electronic device & accessory,old,left,164,,,,,,,,
,,,,,,,,31,,2022-01-10_20h07.47.592,MemLear_ses-01_part-02_label-phase2,2020.1.3,Win32,60,right,1.8774,2,0.5211,0,14,14,59,1,stimuli/objects/icecubetray01a.jpg,Kitchen & utensil,new,right,150,,,,,,,,
,,,,,,,,31,,2022-01-10_20h07.47.592,MemLear_ses-01_part-02_label-phase2,2020.1.3,Win32,60,right,1.9102,1,0.4577,0,15,15,34,1,stimuli/objects/fishingrod.jpg,Outdoor activity & sport item,new,right,125,,,,,,,,
,,,,,,,,31,,2022-01-10_20h07.47.592,MemLear_ses-01_part-02_label-phase2,2020.1.3,Win32,60,left,3.6226,3,0.9082,0,16,16,20,1,stimuli/objects/pot01.jpg,Kitchen & utensil,old,left,111,,,,,,,,
,,,,,,,,31,,2022-01-10_20h07.47.592,MemLear_ses-01_part-02_label-phase2,2020.1.3,Win32,60,left,2.1302,4,1.5291,0,17,17,2,1,stimuli/objects/waterbottle03.jpg,Kitchen & utensil,old,left,93,,,,,,,,
,,,,,,,,31,,2022-01-10_20h07.47.592,MemLear_ses-01_part-02_label-phase2,2020.1.3,Win32,60,right,1.0048,4,0.2479,0,18,18,7,1,stimuli/objects/mitresaw.jpg,Hand labour tool & accessory,new,right,98,,,,,,,,
,,,,,,,,31,,2022-01-10_20h07.47.592,MemLear_ses-01_part-02_label-phase2,2020.1.3,Win32,60,left,1.2459,4,0.3298,0,19,19,1,1,stimuli/objects/nintendods.jpg,Electronic device & accessory,old,left,92,,,,,,,,
,,,,,,,,31,,2022-01-10_20h07.47.592,MemLear_ses-01_part-02_label-phase2,2020.1.3,Win32,60,left,2.3549,3,0.3325,0,20,20,52,1,stimuli/objects/papershredder.jpg,Electronic device & accessory,new,right,143,,,,,,,,
,,,,,,,,31,,2022-01-10_20h07.47.592,MemLear_ses-01_part-02_label-phase2,2020.1.3,Win32,60,left,1.1775,4,0.3052,0,21,21,64,1,stimuli/objects/grill.jpg,Kitchen & utensil,old,left,155,,,,,,,,
,,,,,,,,31,,2022-01-10_20h07.47.592,MemLear_ses-01_part-02_label-phase2,2020.1.3,Win32,60,right,0.9747,3,2.2214,0,22,22,85,1,stimuli/objects/gravyboat.jpg,Kitchen & utensil,new,right,176,,,,,,,,
,,,,,,,,31,,2022-01-10_20h07.47.592,MemLear_ses-01_part-02_label-phase2,2020.1.3,Win32,60,left,4.2479,3,0.9637,0,23,23,31,1,stimuli/objects/cutleryset.jpg,Kitchen & utensil,new,right,122,,,,,,,,
,,,,,,,,31,,2022-01-10_20h07.47.592,MemLear_ses-01_part-02_label-phase2,2020.1.3,Win32,60,left,1.4643,4,0.2908,0,24,24,27,1,stimuli/objects/squeegee01b.jpg,Hand labour tool & accessory,old,left,118,,,,,,,,
,,,,,,,,31,,2022-01-10_20h07.47.592,MemLear_ses-01_part-02_label-phase2,2020.1.3,Win32,60,left,1.6087,2,0.4419,0,25,25,16,1,stimuli/objects/freezer02.jpg,Kitchen & utensil,old,left,107,,,,,,,,
,,,,,,,,31,,2022-01-10_20h07.47.592,MemLear_ses-01_part-02_label-phase2,2020.1.3,Win32,60,right,2.3062,3,1.0018,0,26,26,39,1,stimuli/objects/cookingpot.jpg,Kitchen & utensil,old,left,130,,,,,,,,
,,,,,,,,31,,2022-01-10_20h07.47.592,MemLear_ses-01_part-02_label-phase2,2020.1.3,Win32,60,right,1.7373,3,1.9685,0,27,27,77,1,stimuli/objects/canister.jpg,Kitchen & utensil,old,left,168,,,,,,,,
,,,,,,,,31,,2022-01-10_20h07.47.592,MemLear_ses-01_part-02_label-phase2,2020.1.3,Win32,60,right,2.8582,2,0.4505,0,28,28,86,1,stimuli/objects/corkscrew03a.jpg,Kitchen & utensil,new,right,177,,,,,,,,
,,,,,,,,31,,2022-01-10_20h07.47.592,MemLear_ses-01_part-02_label-phase2,2020.1.3,Win32,60,left,1.2469,4,0.2659,0,29,29,78,1,stimuli/objects/videocamera01a.jpg,Electronic device & accessory,old,left,169,,,,,,,,
,,,,,,,,31,,2022-01-10_20h07.47.592,MemLear_ses-01_part-02_label-phase2,2020.1.3,Win32,60,right,1.1794,3,0.8922,0,30,30,42,1,stimuli/objects/icepack.jpg,Kitchen & utensil,old,left,133,,,,,,,,
,,,,,,,,31,,2022-01-10_20h07.47.592,MemLear_ses-01_part-02_label-phase2,2020.1.3,Win32,60,left,3.0931,3,0.7915,0,31,31,15,1,stimuli/objects/airconditioner.jpg,Electronic device & accessory,new,right,106,,,,,,,,
,,,,,,,,31,,2022-01-10_20h07.47.592,MemLear_ses-01_part-02_label-phase2,2020.1.3,Win32,60,left,2.6332,3,0.2906,0,32,32,69,1,stimuli/objects/alarmsystem.jpg,Electronic device & accessory,old,left,160,,,,,,,,
,,,,,,,,31,,2022-01-10_20h07.47.592,MemLear_ses-01_part-02_label-phase2,2020.1.3,Win32,60,right,1.177,3,0.522,0,33,33,50,1,stimuli/objects/walkman.jpg,Electronic device & accessory,old,left,141,,,,,,,,
,,,,,,,,31,,2022-01-10_20h07.47.592,MemLear_ses-01_part-02_label-phase2,2020.1.3,Win32,60,right,1.1151,3,0.2878,0,34,34,68,1,stimuli/objects/antenna.jpg,Electronic device & accessory,new,right,159,,,,,,,,
,,,,,,,,31,,2022-01-10_20h07.47.592,MemLear_ses-01_part-02_label-phase2,2020.1.3,Win32,60,left,0.9488,4,0.2186,0,35,35,47,1,stimuli/objects/peeler01.jpg,Kitchen & utensil,old,left,138,,,,,,,,
,,,,,,,,31,,2022-01-10_20h07.47.592,MemLear_ses-01_part-02_label-phase2,2020.1.3,Win32,60,left,5.4115,2,0.2564,0,36,36,30,1,stimuli/objects/backpack01a.jpg,Outdoor activity & sport item,old,left,121,,,,,,,,
,,,,,,,,31,,2022-01-10_20h07.47.592,MemLear_ses-01_part-02_label-phase2,2020.1.3,Win32,60,left,1.2034,4,0.2658,0,37,37,29,1,stimuli/objects/coffeepot03a.jpg,Kitchen & utensil,old,left,120,,,,,,,,
,,,,,,,,31,,2022-01-10_20h07.47.592,MemLear_ses-01_part-02_label-phase2,2020.1.3,Win32,60,right,1.2444,4,0.2736,0,38,38,89,1,stimuli/objects/dvdcase01.jpg,Electronic device & accessory,new,right,180,,,,,,,,
,,,,,,,,31,,2022-01-10_20h07.47.592,MemLear_ses-01_part-02_label-phase2,2020.1.3,Win32,60,left,1.0352,3,0.5853,0,39,39,66,1,stimuli/objects/swimgoggles.jpg,Outdoor activity & sport item,old,left,157,,,,,,,,
,,,,,,,,31,,2022-01-10_20h07.47.592,MemLear_ses-01_part-02_label-phase2,2020.1.3,Win32,60,left,3.5139,2,0.1475,0,40,40,61,1,stimuli/objects/battery02b.jpg,Electronic device & accessory,old,left,152,,,,,,,,
,,,,,,,,31,,2022-01-10_20h07.47.592,MemLear_ses-01_part-02_label-phase2,2020.1.3,Win32,60,left,1.2415,4,0.3747,0,41,41,32,1,stimuli/objects/toaster01.jpg,Kitchen & utensil,new,right,123,,,,,,,,
,,,,,,,,31,,2022-01-10_20h07.47.592,MemLear_ses-01_part-02_label-phase2,2020.1.3,Win32,60,left,0.9762,4,0.2587,0,42,42,36,1,stimuli/objects/tupperware03a.jpg,Kitchen & utensil,old,left,127,,,,,,,,
,,,,,,,,31,,2022-01-10_20h07.47.592,MemLear_ses-01_part-02_label-phase2,2020.1.3,Win32,60,right,1.1492,4,0.2646,0,43,43,70,1,stimuli/objects/hockeypuck.jpg,Outdoor activity & sport item,new,right,161,,,,,,,,
,,,,,,,,31,,2022-01-10_20h07.47.592,MemLear_ses-01_part-02_label-phase2,2020.1.3,Win32,60,left,1.1051,3,0.3218,0,44,44,51,1,stimuli/objects/remotecontrol04.jpg,Electronic device & accessory,old,left,142,,,,,,,,
,,,,,,,,31,,2022-01-10_20h07.47.592,MemLear_ses-01_part-02_label-phase2,2020.1.3,Win32,60,right,0.9637,4,0.2476,0,45,45,4,1,stimuli/objects/webcam.jpg,Electronic device & accessory,new,right,95,,,,,,,,
,,,,,,,,31,,2022-01-10_20h07.47.592,MemLear_ses-01_part-02_label-phase2,2020.1.3,Win32,60,right,1.3458,3,0.5224,0,46,46,58,1,stimuli/objects/gps.jpg,Electronic device & accessory,old,left,149,,,,,,,,
,,,,,,,,31,,2022-01-10_20h07.47.592,MemLear_ses-01_part-02_label-phase2,2020.1.3,Win32,60,right,1.1827,3,1.1838,0,47,47,0,1,stimuli/objects/solderingiron.jpg,Hand labour tool & accessory,new,right,91,,,,,,,,
,,,,,,,,31,,2022-01-10_20h07.47.592,MemLear_ses-01_part-02_label-phase2,2020.1.3,Win32,60,left,3.8283,2,0.2596,0,48,48,3,1,stimuli/objects/wafflemaker.jpg,Kitchen & utensil,new,right,94,,,,,,,,
,,,,,,,,31,,2022-01-10_20h07.47.592,MemLear_ses-01_part-02_label-phase2,2020.1.3,Win32,60,left,1.4947,3,0.3869,0,49,49,6,1,stimuli/objects/wiicontroller.jpg,Electronic device & accessory,old,left,97,,,,,,,,
,,,,,,,,31,,2022-01-10_20h07.47.592,MemLear_ses-01_part-02_label-phase2,2020.1.3,Win32,60,left,1.1105,4,0.9113,0,50,50,48,1,stimuli/objects/camera01a.jpg,Electronic device & accessory,old,left,139,,,,,,,,
,,,,,,,,31,,2022-01-10_20h07.47.592,MemLear_ses-01_part-02_label-phase2,2020.1.3,Win32,60,left,2.9451,1,0.2251,0,51,51,82,1,stimuli/objects/lightswitch01.jpg,Electronic device & accessory,old,left,173,,,,,,,,
,,,,,,,,31,,2022-01-10_20h07.47.592,MemLear_ses-01_part-02_label-phase2,2020.1.3,Win32,60,left,1.1741,4,0.3193,0,52,52,19,1,stimuli/objects/jack.jpg,Electronic device & accessory,old,left,110,,,,,,,,
,,,,,,,,31,,2022-01-10_20h07.47.592,MemLear_ses-01_part-02_label-phase2,2020.1.3,Win32,60,left,1.0719,3,1.2619,0,53,53,40,1,stimuli/objects/snowshoe.jpg,Outdoor activity & sport item,old,left,131,,,,,,,,
,,,,,,,,31,,2022-01-10_20h07.47.592,MemLear_ses-01_part-02_label-phase2,2020.1.3,Win32,60,right,2.0448,3,1.1008,0,54,54,45,1,stimuli/objects/breadknife.jpg,Kitchen & utensil,old,left,136,,,,,,,,
,,,,,,,,31,,2022-01-10_20h07.47.592,MemLear_ses-01_part-02_label-phase2,2020.1.3,Win32,60,right,1.2711,3,0.4248,0,55,55,63,1,stimuli/objects/anchor.jpg,Outdoor activity & sport item,new,right,154,,,,,,,,
,,,,,,,,31,,2022-01-10_20h07.47.592,MemLear_ses-01_part-02_label-phase2,2020.1.3,Win32,60,left,2.4021,4,0.2235,0,56,56,22,1,stimuli/objects/lawnmower.jpg,Hand labour tool & accessory,old,left,113,,,,,,,,
,,,,,,,,31,,2022-01-10_20h07.47.592,MemLear_ses-01_part-02_label-phase2,2020.1.3,Win32,60,left,1.0161,4,0.2296,0,57,57,25,1,stimuli/objects/oven.jpg,Kitchen & utensil,old,left,116,,,,,,,,
,,,,,,,,31,,2022-01-10_20h07.47.592,MemLear_ses-01_part-02_label-phase2,2020.1.3,Win32,60,right,1.8645,3,0.3305,0,58,58,57,1,stimuli/objects/extensioncord.jpg,Electronic device & accessory,old,left,148,,,,,,,,
,,,,,,,,31,,2022-01-10_20h07.47.592,MemLear_ses-01_part-02_label-phase2,2020.1.3,Win32,60,left,10.9375,4,2.9022,0,59,59,81,1,stimuli/objects/cowbell.jpg,Kitchen & utensil,old,left,172,,,,,,,,
,,,,,,,,31,,2022-01-10_20h07.47.592,MemLear_ses-01_part-02_label-phase2,2020.1.3,Win32,60,right,1.0189,4,0.2531,0,60,60,24,1,stimuli/objects/wire.jpg,Electronic device & accessory,new,right,115,,,,,,,,
,,,,,,,,31,,2022-01-10_20h07.47.592,MemLear_ses-01_part-02_label-phase2,2020.1.3,Win32,60,right,1.3607,3,1.5882,0,61,61,87,1,stimuli/objects/painttray.jpg,Hand labour tool & accessory,old,left,178,,,,,,,,
,,,,,,,,31,,2022-01-10_20h07.47.592,MemLear_ses-01_part-02_label-phase2,2020.1.3,Win32,60,left,1.1716,4,0.2721,0,62,62,79,1,stimuli/objects/handmixer01d.jpg,Kitchen & utensil,old,left,170,,,,,,,,
,,,,,,,,31,,2022-01-10_20h07.47.592,MemLear_ses-01_part-02_label-phase2,2020.1.3,Win32,60,left,1.4457,4,0.3099,0,63,63,83,1,stimuli/objects/carlighter02.jpg,Electronic device & accessory,old,left,174,,,,,,,,
,,,,,,,,31,,2022-01-10_20h07.47.592,MemLear_ses-01_part-02_label-phase2,2020.1.3,Win32,60,right,0.9906,4,0.2879,0,64,64,37,1,stimuli/objects/desktopcomputer.jpg,Electronic device & accessory,old,left,128,,,,,,,,
,,,,,,,,31,,2022-01-10_20h07.47.592,MemLear_ses-01_part-02_label-phase2,2020.1.3,Win32,60,left,1.0859,4,0.447,0,65,65,84,1,stimuli/objects/kneepad01c.jpg,Outdoor activity & sport item,old,left,175,,,,,,,,
,,,,,,,,31,,2022-01-10_20h07.47.592,MemLear_ses-01_part-02_label-phase2,2020.1.3,Win32,60,left,2.067,3,0.3538,0,66,66,10,1,stimuli/objects/chandelier.jpg,Electronic device & accessory,old,left,101,,,,,,,,
,,,,,,,,31,,2022-01-10_20h07.47.592,MemLear_ses-01_part-02_label-phase2,2020.1.3,Win32,60,left,8.9661,2,0.2646,0,67,67,54,1,stimuli/objects/butterdish.jpg,Kitchen & utensil,new,right,145,,,,,,,,
,,,,,,,,31,,2022-01-10_20h07.47.592,MemLear_ses-01_part-02_label-phase2,2020.1.3,Win32,60,right,1.7119,1,4.7404,0,68,68,53,1,stimuli/objects/megaphone.jpg,Electronic device & accessory,new,right,144,,,,,,,,
,,,,,,,,31,,2022-01-10_20h07.47.592,MemLear_ses-01_part-02_label-phase2,2020.1.3,Win32,60,right,1.6636,1,2.672,0,69,69,71,1,stimuli/objects/computerkeyboard02.jpg,Electronic device & accessory,old,left,162,,,,,,,,
,,,,,,,,31,,2022-01-10_20h07.47.592,MemLear_ses-01_part-02_label-phase2,2020.1.3,Win32,60,left,1.2576,4,0.2426,0,70,70,13,1,stimuli/objects/smokedetector02.jpg,Electronic device & accessory,new,right,104,,,,,,,,
,,,,,,,,31,,2022-01-10_20h07.47.592,MemLear_ses-01_part-02_label-phase2,2020.1.3,Win32,60,right,2.3836,2,1.0832,0,71,71,88,1,stimuli/objects/strainer01b.jpg,Kitchen & utensil,new,right,179,,,,,,,,
,,,,,,,,31,,2022-01-10_20h07.47.592,MemLear_ses-01_part-02_label-phase2,2020.1.3,Win32,60,right,1.0408,3,0.2826,0,72,72,5,1,stimuli/objects/filmroll.jpg,Electronic device & accessory,old,left,96,,,,,,,,
,,,,,,,,31,,2022-01-10_20h07.47.592,MemLear_ses-01_part-02_label-phase2,2020.1.3,Win32,60,right,0.9867,3,0.7075,0,73,73,11,1,stimuli/objects/wheelbarrow01.jpg,Hand labour tool & accessory,new,right,102,,,,,,,,
,,,,,,,,31,,2022-01-10_20h07.47.592,MemLear_ses-01_part-02_label-phase2,2020.1.3,Win32,60,left,1.3635,4,0.2458,0,74,74,18,1,stimuli/objects/fridge.jpg,Kitchen & utensil,old,left,109,,,,,,,,
,,,,,,,,31,,2022-01-10_20h07.47.592,MemLear_ses-01_part-02_label-phase2,2020.1.3,Win32,60,left,2.1606,2,0.3469,0,75,75,35,1,stimuli/objects/spatula03.jpg,Kitchen & utensil,old,left,126,,,,,,,,
,,,,,,,,31,,2022-01-10_20h07.47.592,MemLear_ses-01_part-02_label-phase2,2020.1.3,Win32,60,right,1.6402,1,0.9461,0,76,76,74,1,stimuli/objects/radio01.jpg,Electronic device & accessory,old,left,165,,,,,,,,
,,,,,,,,31,,2022-01-10_20h07.47.592,MemLear_ses-01_part-02_label-phase2,2020.1.3,Win32,60,right,0.8775,4,1.271,0,77,77,76,1,stimuli/objects/tableknife02.jpg,Kitchen & utensil,new,right,167,,,,,,,,
,,,,,,,,31,,2022-01-10_20h07.47.592,MemLear_ses-01_part-02_label-phase2,2020.1.3,Win32,60,left,0.9867,3,0.7416,0,78,78,33,1,stimuli/objects/lamp04a.jpg,Electronic device & accessory,old,left,124,,,,,,,,
,,,,,,,,31,,2022-01-10_20h07.47.592,MemLear_ses-01_part-02_label-phase2,2020.1.3,Win32,60,right,1.2588,2,0.2541,0,79,79,41,1,stimuli/objects/bottleopener01.jpg,Kitchen & utensil,new,right,132,,,,,,,,
,,,,,,,,31,,2022-01-10_20h07.47.592,MemLear_ses-01_part-02_label-phase2,2020.1.3,Win32,60,right,1.719,3,5.001,0,80,80,60,1,stimuli/objects/icebucket.jpg,Kitchen & utensil,old,left,151,,,,,,,,
,,,,,,,,31,,2022-01-10_20h07.47.592,MemLear_ses-01_part-02_label-phase2,2020.1.3,Win32,60,left,1.0389,4,0.3007,0,81,81,65,1,stimuli/objects/bikepump01.jpg,Outdoor activity & sport item,old,left,156,,,,,,,,
,,,,,,,,31,,2022-01-10_20h07.47.592,MemLear_ses-01_part-02_label-phase2,2020.1.3,Win32,60,left,0.8301,4,0.3245,0,82,82,43,1,stimuli/objects/swissarmyknife01a.jpg,Hand labour tool & accessory,old,left,134,,,,,,,,
,,,,,,,,31,,2022-01-10_20h07.47.592,MemLear_ses-01_part-02_label-phase2,2020.1.3,Win32,60,left,1.403,4,0.2551,0,83,83,21,1,stimuli/objects/funnel.jpg,Kitchen & utensil,old,left,112,,,,,,,,
,,,,,,,,31,,2022-01-10_20h07.47.592,MemLear_ses-01_part-02_label-phase2,2020.1.3,Win32,60,left,0.6959,4,0.4051,0,84,84,80,1,stimuli/objects/boltcutter.jpg,Hand labour tool & accessory,old,left,171,,,,,,,,
,,,,,,,,31,,2022-01-10_20h07.47.592,MemLear_ses-01_part-02_label-phase2,2020.1.3,Win32,60,left,0.6583,4,0.3296,0,85,85,55,1,stimuli/objects/bottlecap.jpg,Kitchen & utensil,old,left,146,,,,,,,,
,,,,,,,,31,,2022-01-10_20h07.47.592,MemLear_ses-01_part-02_label-phase2,2020.1.3,Win32,60,left,2.2387,3,0.6199,0,86,86,67,1,stimuli/objects/pitcher02b.jpg,Kitchen & utensil,old,left,158,,,,,,,,
,,,,,,,,31,,2022-01-10_20h07.47.592,MemLear_ses-01_part-02_label-phase2,2020.1.3,Win32,60,right,1.2703,1,0.6231,0,87,87,9,1,stimuli/objects/satellitedish01.jpg,Electronic device & accessory,new,right,100,,,,,,,,
,,,,,,,,31,,2022-01-10_20h07.47.592,MemLear_ses-01_part-02_label-phase2,2020.1.3,Win32,60,left,1.3166,4,2.1596,0,88,88,56,1,stimuli/objects/potatomasher03b.jpg,Kitchen & utensil,old,left,147,,,,,,,,
,,,,,,,,31,,2022-01-10_20h07.47.592,MemLear_ses-01_part-02_label-phase2,2020.1.3,Win32,60,left,1.5643,2,0.3741,0,89,89,12,1,stimuli/objects/kitchenscale01a.jpg,Kitchen & utensil,old,left,103,,,,,,,,
,,,,,,,,31,,2022-01-10_20h07.47.592,MemLear_ses-01_part-02_label-phase2,2020.1.3,Win32,60,,,,,,,,,,,,,,,space,2.7328,0,1,1,1,1,condition_files/ImagesforRecog4_2.csv
