illustration_loop.thisRepN,illustration_loop.thisTrialN,illustration_loop.thisN,illustration_loop.thisIndex,illustration_loop.ran,images,key,participant,Expra Code,date,expName,psychopyVersion,OS,frameRate,key_resp_4.keys,key_resp_4.corr,key_resp_4.rt,n_back_loop.thisRepN,n_back_loop.thisTrialN,n_back_loop.thisN,n_back_loop.thisIndex,n_back_loop.ran,word,CORRanswer,trialtype,hit_NoHit
0,0,0,0,1,slide 1.jpg,'space’,6,,2021-12-30_11h38.55.522,MemLear_ses-01_part-02_label-nBack,2020.1.3,MacIntel,60,,,,,,,,,,,,
0,1,1,1,1,slide 2.jpg,'l’,6,,2021-12-30_11h38.55.522,MemLear_ses-01_part-02_label-nBack,2020.1.3,MacIntel,60,,,,,,,,,,,,
0,2,2,2,1,slide 3.jpg,'l’,6,,2021-12-30_11h38.55.522,MemLear_ses-01_part-02_label-nBack,2020.1.3,MacIntel,60,,,,,,,,,,,,
0,3,3,3,1,slide 4.jpg,'l’,6,,2021-12-30_11h38.55.522,MemLear_ses-01_part-02_label-nBack,2020.1.3,MacIntel,60,,,,,,,,,,,,
0,4,4,4,1,slide 5.jpg,'d’,6,,2021-12-30_11h38.55.522,MemLear_ses-01_part-02_label-nBack,2020.1.3,MacIntel,60,,,,,,,,,,,,
0,5,5,5,1,slide 6.jpg,'l’,6,,2021-12-30_11h38.55.522,MemLear_ses-01_part-02_label-nBack,2020.1.3,MacIntel,60,,,,,,,,,,,,
,,,,,,,6,,2021-12-30_11h38.55.522,MemLear_ses-01_part-02_label-nBack,2020.1.3,MacIntel,60,"[""l""]",1,[1.757700000002984],0,0,0,0,1,bless,l,0,NoHit
,,,,,,,6,,2021-12-30_11h38.55.522,MemLear_ses-01_part-02_label-nBack,2020.1.3,MacIntel,60,"[""l""]",1,[1.0427000000029807],0,1,1,1,1,nature,l,0,NoHit
,,,,,,,6,,2021-12-30_11h38.55.522,MemLear_ses-01_part-02_label-nBack,2020.1.3,MacIntel,60,"[""l""]",1,[1.04849999999999],0,2,2,2,1,carefree,l,0,NoHit
,,,,,,,6,,2021-12-30_11h38.55.522,MemLear_ses-01_part-02_label-nBack,2020.1.3,MacIntel,60,"[""d""]",1,[0.9992999999970209],0,3,3,3,1,nature,d,1,Hit
,,,,,,,6,,2021-12-30_11h38.55.522,MemLear_ses-01_part-02_label-nBack,2020.1.3,MacIntel,60,"[""l""]",1,[0.9696000000014919],0,4,4,4,1,easygoing,l,0,NoHit
,,,,,,,6,,2021-12-30_11h38.55.522,MemLear_ses-01_part-02_label-nBack,2020.1.3,MacIntel,60,"[""l""]",1,[1.1938999999985356],0,5,5,5,1,pillow,l,0,NoHit
,,,,,,,6,,2021-12-30_11h38.55.522,MemLear_ses-01_part-02_label-nBack,2020.1.3,MacIntel,60,"[""d""]",1,[1.004199999995535],0,6,6,6,1,easygoing,d,1,Hit
,,,,,,,6,,2021-12-30_11h38.55.522,MemLear_ses-01_part-02_label-nBack,2020.1.3,MacIntel,60,"[""l""]",1,[1.038499999999999],0,7,7,7,1,gentle,l,0,NoHit
,,,,,,,6,,2021-12-30_11h38.55.522,MemLear_ses-01_part-02_label-nBack,2020.1.3,MacIntel,60,"[""l""]",1,[0.8722999999970114],0,8,8,8,1,square,l,0,NoHit
,,,,,,,6,,2021-12-30_11h38.55.522,MemLear_ses-01_part-02_label-nBack,2020.1.3,MacIntel,60,"[""d""]",1,[1.0660000000000025],0,9,9,9,1,gentle,d,1,Hit
,,,,,,,6,,2021-12-30_11h38.55.522,MemLear_ses-01_part-02_label-nBack,2020.1.3,MacIntel,60,"[""l""]",1,[1.5312000000029684],0,10,10,10,1,carefree,l,0,NoHit
,,,,,,,6,,2021-12-30_11h38.55.522,MemLear_ses-01_part-02_label-nBack,2020.1.3,MacIntel,60,"[""l""]",1,[1.4763999999985344],0,11,11,11,1,tool,l,0,NoHit
,,,,,,,6,,2021-12-30_11h38.55.522,MemLear_ses-01_part-02_label-nBack,2020.1.3,MacIntel,60,"[""l""]",1,[0.9606000000014774],0,12,12,12,1,bored,l,0,NoHit
,,,,,,,6,,2021-12-30_11h38.55.522,MemLear_ses-01_part-02_label-nBack,2020.1.3,MacIntel,60,"[""d""]",1,[1.0422999999969988],0,13,13,13,1,tool,d,1,Hit
,,,,,,,6,,2021-12-30_11h38.55.522,MemLear_ses-01_part-02_label-nBack,2020.1.3,MacIntel,60,"[""l""]",1,[1.2240999999940243],0,14,14,14,1,home,l,0,NoHit
,,,,,,,6,,2021-12-30_11h38.55.522,MemLear_ses-01_part-02_label-nBack,2020.1.3,MacIntel,60,"[""l""]",1,[1.2052999999970382],0,15,15,15,1,immature,l,0,NoHit
,,,,,,,6,,2021-12-30_11h38.55.522,MemLear_ses-01_part-02_label-nBack,2020.1.3,MacIntel,60,"[""d""]",1,[1.0513999999984946],0,16,16,16,1,home,d,1,Hit
,,,,,,,6,,2021-12-30_11h38.55.522,MemLear_ses-01_part-02_label-nBack,2020.1.3,MacIntel,60,"[""l""]",1,[1.0269999999999868],0,17,17,17,1,fault,l,0,NoHit
,,,,,,,6,,2021-12-30_11h38.55.522,MemLear_ses-01_part-02_label-nBack,2020.1.3,MacIntel,60,"[""l""]",1,[1.1890000000000214],0,18,18,18,1,pillow,l,0,NoHit
,,,,,,,6,,2021-12-30_11h38.55.522,MemLear_ses-01_part-02_label-nBack,2020.1.3,MacIntel,60,"[""l""]",1,[0.9906000000014785],0,19,19,19,1,violin,l,0,NoHit
,,,,,,,6,,2021-12-30_11h38.55.522,MemLear_ses-01_part-02_label-nBack,2020.1.3,MacIntel,60,"[""l""]",0,[1.143799999997043],0,20,20,20,1,violin,d,1,Hit
,,,,,,,6,,2021-12-30_11h38.55.522,MemLear_ses-01_part-02_label-nBack,2020.1.3,MacIntel,60,"[""l""]",1,[1.024499999999989],0,21,21,21,1,tense,l,0,NoHit
,,,,,,,6,,2021-12-30_11h38.55.522,MemLear_ses-01_part-02_label-nBack,2020.1.3,MacIntel,60,"[""l""]",1,[1.0868999999985078],0,22,22,22,1,confident,l,0,NoHit
,,,,,,,6,,2021-12-30_11h38.55.522,MemLear_ses-01_part-02_label-nBack,2020.1.3,MacIntel,60,"[""l""]",1,[1.0364000000059548],0,23,23,23,1,bomb,l,0,NoHit
,,,,,,,6,,2021-12-30_11h38.55.522,MemLear_ses-01_part-02_label-nBack,2020.1.3,MacIntel,60,"[""l""]",0,[1.1677000000029807],0,24,24,24,1,confident,d,1,Hit
,,,,,,,6,,2021-12-30_11h38.55.522,MemLear_ses-01_part-02_label-nBack,2020.1.3,MacIntel,60,"[""l""]",1,[1.099899999998513],0,25,25,25,1,butterfly,l,0,NoHit
,,,,,,,6,,2021-12-30_11h38.55.522,MemLear_ses-01_part-02_label-nBack,2020.1.3,MacIntel,60,"[""l""]",1,[1.2553000000044676],0,26,26,26,1,cheer,l,0,NoHit
,,,,,,,6,,2021-12-30_11h38.55.522,MemLear_ses-01_part-02_label-nBack,2020.1.3,MacIntel,60,"[""l""]",1,[1.4124999999999943],0,27,27,27,1,street,l,0,NoHit
,,,,,,,6,,2021-12-30_11h38.55.522,MemLear_ses-01_part-02_label-nBack,2020.1.3,MacIntel,60,"[""d""]",1,[1.3673999999984972],0,28,28,28,1,cheer,d,1,Hit
,,,,,,,6,,2021-12-30_11h38.55.522,MemLear_ses-01_part-02_label-nBack,2020.1.3,MacIntel,60,"[""l""]",1,[1.4493999999984908],0,29,29,29,1,taxi,l,0,NoHit
,,,,,,,6,,2021-12-30_11h38.55.522,MemLear_ses-01_part-02_label-nBack,2020.1.3,MacIntel,60,"[""l""]",1,[1.171299999997018],0,30,30,30,1,adventure,l,0,NoHit
,,,,,,,6,,2021-12-30_11h38.55.522,MemLear_ses-01_part-02_label-nBack,2020.1.3,MacIntel,60,"[""l""]",1,[0.8906000000014842],0,31,31,31,1,crutch,l,0,NoHit
,,,,,,,6,,2021-12-30_11h38.55.522,MemLear_ses-01_part-02_label-nBack,2020.1.3,MacIntel,60,"[""d""]",1,[1.1183999999985303],0,32,32,32,1,adventure,d,1,Hit
,,,,,,,6,,2021-12-30_11h38.55.522,MemLear_ses-01_part-02_label-nBack,2020.1.3,MacIntel,60,"[""l""]",1,[1.0242000000029918],0,33,33,33,1,vest,l,0,NoHit
,,,,,,,6,,2021-12-30_11h38.55.522,MemLear_ses-01_part-02_label-nBack,2020.1.3,MacIntel,60,"[""l""]",1,[1.3836000000014792],0,34,34,34,1,taxi,l,0,NoHit
,,,,,,,6,,2021-12-30_11h38.55.522,MemLear_ses-01_part-02_label-nBack,2020.1.3,MacIntel,60,"[""l""]",1,[1.0529000000059625],0,35,35,35,1,brave,l,0,NoHit
,,,,,,,6,,2021-12-30_11h38.55.522,MemLear_ses-01_part-02_label-nBack,2020.1.3,MacIntel,60,"[""l""]",1,[1.1888999999985117],0,36,36,36,1,square,l,0,NoHit
,,,,,,,6,,2021-12-30_11h38.55.522,MemLear_ses-01_part-02_label-nBack,2020.1.3,MacIntel,60,"[""d""]",1,[1.0567999999970255],0,37,37,37,1,brave,d,1,Hit
,,,,,,,6,,2021-12-30_11h38.55.522,MemLear_ses-01_part-02_label-nBack,2020.1.3,MacIntel,60,"[""l""]",1,[0.8626000000014926],0,38,38,38,1,unhappy,l,0,NoHit
,,,,,,,6,,2021-12-30_11h38.55.522,MemLear_ses-01_part-02_label-nBack,2020.1.3,MacIntel,60,"[""l""]",1,[1.9018999999985056],0,39,39,39,1,deformed,l,0,NoHit
,,,,,,,6,,2021-12-30_11h38.55.522,MemLear_ses-01_part-02_label-nBack,2020.1.3,MacIntel,60,"[""l""]",1,[0.8603000000044574],0,40,40,40,1,rifle,l,0,NoHit
,,,,,,,6,,2021-12-30_11h38.55.522,MemLear_ses-01_part-02_label-nBack,2020.1.3,MacIntel,60,"[""d""]",1,[1.0723999999985097],0,41,41,41,1,deformed,d,1,Hit
,,,,,,,6,,2021-12-30_11h38.55.522,MemLear_ses-01_part-02_label-nBack,2020.1.3,MacIntel,60,"[""l""]",1,[1.2408000000044694],0,42,42,42,1,tense,l,0,NoHit
,,,,,,,6,,2021-12-30_11h38.55.522,MemLear_ses-01_part-02_label-nBack,2020.1.3,MacIntel,60,"[""l""]",1,[0.7894000000059691],0,43,43,43,1,inferior,l,0,NoHit
,,,,,,,6,,2021-12-30_11h38.55.522,MemLear_ses-01_part-02_label-nBack,2020.1.3,MacIntel,60,"[""l""]",1,[0.8316000000014867],0,44,44,44,1,exercise,l,0,NoHit
,,,,,,,6,,2021-12-30_11h38.55.522,MemLear_ses-01_part-02_label-nBack,2020.1.3,MacIntel,60,"[""d""]",1,[1.9932999999970207],0,45,45,45,1,inferior,d,1,Hit
,,,,,,,6,,2021-12-30_11h38.55.522,MemLear_ses-01_part-02_label-nBack,2020.1.3,MacIntel,60,"[""l""]",1,[1.0035000000000025],0,46,46,46,1,crutch,l,0,NoHit
,,,,,,,6,,2021-12-30_11h38.55.522,MemLear_ses-01_part-02_label-nBack,2020.1.3,MacIntel,60,"[""l""]",1,[1.001499999999993],0,47,47,47,1,obesity,l,0,NoHit
,,,,,,,6,,2021-12-30_11h38.55.522,MemLear_ses-01_part-02_label-nBack,2020.1.3,MacIntel,60,"[""l""]",1,[0.8402000000029943],0,48,48,48,1,bless,l,0,NoHit
,,,,,,,6,,2021-12-30_11h38.55.522,MemLear_ses-01_part-02_label-nBack,2020.1.3,MacIntel,60,"[""d""]",1,[0.8697000000029789],0,49,49,49,1,obesity,d,1,Hit
,,,,,,,6,,2021-12-30_11h38.55.522,MemLear_ses-01_part-02_label-nBack,2020.1.3,MacIntel,60,"[""l""]",1,[0.9333000000044649],0,50,50,50,1,pistol,l,0,NoHit
,,,,,,,6,,2021-12-30_11h38.55.522,MemLear_ses-01_part-02_label-nBack,2020.1.3,MacIntel,60,"[""l""]",1,[1.0743999999984908],0,51,51,51,1,bored,l,0,NoHit
,,,,,,,6,,2021-12-30_11h38.55.522,MemLear_ses-01_part-02_label-nBack,2020.1.3,MacIntel,60,"[""l""]",1,[0.7609999999999957],0,52,52,52,1,pity,l,0,NoHit
,,,,,,,6,,2021-12-30_11h38.55.522,MemLear_ses-01_part-02_label-nBack,2020.1.3,MacIntel,60,"[""l""]",1,[0.7926000000014994],0,53,53,53,1,politeness,l,0,NoHit
,,,,,,,6,,2021-12-30_11h38.55.522,MemLear_ses-01_part-02_label-nBack,2020.1.3,MacIntel,60,"[""d""]",1,[3.9023999999984937],0,54,54,54,1,pity,d,1,Hit
,,,,,,,6,,2021-12-30_11h38.55.522,MemLear_ses-01_part-02_label-nBack,2020.1.3,MacIntel,60,"[""l""]",1,[1.1529999999999916],0,55,55,55,1,beautiful,l,0,NoHit
,,,,,,,6,,2021-12-30_11h38.55.522,MemLear_ses-01_part-02_label-nBack,2020.1.3,MacIntel,60,"[""l""]",1,[1.0495999999940295],0,56,56,56,1,street,l,0,NoHit
,,,,,,,6,,2021-12-30_11h38.55.522,MemLear_ses-01_part-02_label-nBack,2020.1.3,MacIntel,60,"[""d""]",1,[0.9291000000015117],0,57,57,57,1,beautiful,d,1,Hit
,,,,,,,6,,2021-12-30_11h38.55.522,MemLear_ses-01_part-02_label-nBack,2020.1.3,MacIntel,60,"[""l""]",1,[1.006799999997014],0,58,58,58,1,aroused,l,0,NoHit
,,,,,,,6,,2021-12-30_11h38.55.522,MemLear_ses-01_part-02_label-nBack,2020.1.3,MacIntel,60,"[""l""]",1,[1.2794999999999845],0,59,59,59,1,demon,l,0,NoHit
,,,,,,,6,,2021-12-30_11h38.55.522,MemLear_ses-01_part-02_label-nBack,2020.1.3,MacIntel,60,"[""d""]",1,[0.9691999999955385],0,60,60,60,1,aroused,d,1,Hit
,,,,,,,6,,2021-12-30_11h38.55.522,MemLear_ses-01_part-02_label-nBack,2020.1.3,MacIntel,60,"[""l""]",1,[1.166100000001478],0,61,61,61,1,cash,l,0,NoHit
,,,,,,,6,,2021-12-30_11h38.55.522,MemLear_ses-01_part-02_label-nBack,2020.1.3,MacIntel,60,"[""l""]",1,[0.9453999999985285],0,62,62,62,1,immature,l,0,NoHit
,,,,,,,6,,2021-12-30_11h38.55.522,MemLear_ses-01_part-02_label-nBack,2020.1.3,MacIntel,60,"[""l""]",1,[1.140299999997012],0,63,63,63,1,cheer,l,0,NoHit
,,,,,,,6,,2021-12-30_11h38.55.522,MemLear_ses-01_part-02_label-nBack,2020.1.3,MacIntel,60,"[""l""]",0,[1.1518999999984771],0,64,64,64,1,cheer,d,1,Hit
,,,,,,,6,,2021-12-30_11h38.55.522,MemLear_ses-01_part-02_label-nBack,2020.1.3,MacIntel,60,"[""l""]",1,[0.8822000000029959],0,65,65,65,1,controlling,l,0,NoHit
,,,,,,,6,,2021-12-30_11h38.55.522,MemLear_ses-01_part-02_label-nBack,2020.1.3,MacIntel,60,"[""l""]",1,[0.879600000001517],0,66,66,66,1,messy,l,0,NoHit
,,,,,,,6,,2021-12-30_11h38.55.522,MemLear_ses-01_part-02_label-nBack,2020.1.3,MacIntel,60,"[""l""]",1,[0.9810999999940009],0,67,67,67,1,cliff,l,0,NoHit
,,,,,,,6,,2021-12-30_11h38.55.522,MemLear_ses-01_part-02_label-nBack,2020.1.3,MacIntel,60,"[""l""]",1,[0.8721000000015238],0,68,68,68,1,butterfly,l,0,NoHit
,,,,,,,6,,2021-12-30_11h38.55.522,MemLear_ses-01_part-02_label-nBack,2020.1.3,MacIntel,60,"[""d""]",1,[1.8817999999970425],0,69,69,69,1,cliff,d,1,Hit
,,,,,,,6,,2021-12-30_11h38.55.522,MemLear_ses-01_part-02_label-nBack,2020.1.3,MacIntel,60,"[""l""]",1,[0.9680999999940241],0,70,70,70,1,erotic,l,0,NoHit
,,,,,,,6,,2021-12-30_11h38.55.522,MemLear_ses-01_part-02_label-nBack,2020.1.3,MacIntel,60,"[""l""]",1,[1.01309999999404],0,71,71,71,1,vest,l,0,NoHit
,,,,,,,6,,2021-12-30_11h38.55.522,MemLear_ses-01_part-02_label-nBack,2020.1.3,MacIntel,60,"[""l""]",1,[1.0045000000000073],0,72,72,72,1,dazzle,l,0,NoHit
,,,,,,,6,,2021-12-30_11h38.55.522,MemLear_ses-01_part-02_label-nBack,2020.1.3,MacIntel,60,"[""l""]",1,[0.9688999999984844],0,73,73,73,1,disloyal,l,0,NoHit
,,,,,,,6,,2021-12-30_11h38.55.522,MemLear_ses-01_part-02_label-nBack,2020.1.3,MacIntel,60,"[""d""]",1,[1.2280000000000086],0,74,74,74,1,dazzle,d,1,Hit
,,,,,,,6,,2021-12-30_11h38.55.522,MemLear_ses-01_part-02_label-nBack,2020.1.3,MacIntel,60,"[""l""]",1,[1.0312999999970316],0,75,75,75,1,defiant,l,0,NoHit
,,,,,,,6,,2021-12-30_11h38.55.522,MemLear_ses-01_part-02_label-nBack,2020.1.3,MacIntel,60,"[""l""]",1,[0.99350000000004],0,76,76,76,1,fault,l,0,NoHit
,,,,,,,6,,2021-12-30_11h38.55.522,MemLear_ses-01_part-02_label-nBack,2020.1.3,MacIntel,60,"[""d""]",1,[1.0248999999985244],0,77,77,77,1,defiant,d,1,Hit
,,,,,,,6,,2021-12-30_11h38.55.522,MemLear_ses-01_part-02_label-nBack,2020.1.3,MacIntel,60,"[""l""]",1,[1.1925999999940586],0,78,78,78,1,shotgun,l,0,NoHit
,,,,,,,6,,2021-12-30_11h38.55.522,MemLear_ses-01_part-02_label-nBack,2020.1.3,MacIntel,60,"[""l""]",1,[0.8641999999954919],0,79,79,79,1,revolt,l,0,NoHit
,,,,,,,6,,2021-12-30_11h38.55.522,MemLear_ses-01_part-02_label-nBack,2020.1.3,MacIntel,60,"[""l""]",1,[0.8294999999999959],0,80,80,80,1,unhappy,l,0,NoHit
,,,,,,,6,,2021-12-30_11h38.55.522,MemLear_ses-01_part-02_label-nBack,2020.1.3,MacIntel,60,"[""d""]",1,[1.5899000000059686],0,81,81,81,1,revolt,d,1,Hit
,,,,,,,6,,2021-12-30_11h38.55.522,MemLear_ses-01_part-02_label-nBack,2020.1.3,MacIntel,60,"[""l""]",1,[0.8641000000014856],0,82,82,82,1,car,l,0,NoHit
,,,,,,,6,,2021-12-30_11h38.55.522,MemLear_ses-01_part-02_label-nBack,2020.1.3,MacIntel,60,"[""l""]",1,[0.651899999998534],0,83,83,83,1,fight,l,0,NoHit
,,,,,,,6,,2021-12-30_11h38.55.522,MemLear_ses-01_part-02_label-nBack,2020.1.3,MacIntel,60,"[""l""]",1,[0.887700000003008],0,84,84,84,1,obsession,l,0,NoHit
,,,,,,,6,,2021-12-30_11h38.55.522,MemLear_ses-01_part-02_label-nBack,2020.1.3,MacIntel,60,"[""l""]",0,[1.0498999999985017],0,85,85,85,1,obsession,d,1,Hit
,,,,,,,6,,2021-12-30_11h38.55.522,MemLear_ses-01_part-02_label-nBack,2020.1.3,MacIntel,60,"[""l""]",1,[0.7794999999999845],0,86,86,86,1,messy,l,0,NoHit
,,,,,,,6,,2021-12-30_11h38.55.522,MemLear_ses-01_part-02_label-nBack,2020.1.3,MacIntel,60,"[""l""]",1,[0.751100000001486],0,87,87,87,1,anger,l,0,NoHit
,,,,,,,6,,2021-12-30_11h38.55.522,MemLear_ses-01_part-02_label-nBack,2020.1.3,MacIntel,60,"[""l""]",1,[0.8752000000030193],0,88,88,88,1,exercise,l,0,NoHit
,,,,,,,6,,2021-12-30_11h38.55.522,MemLear_ses-01_part-02_label-nBack,2020.1.3,MacIntel,60,"[""d""]",1,[1.6103999999984921],0,89,89,89,1,anger,d,1,Hit
,,,,,,,6,,2021-12-30_11h38.55.522,MemLear_ses-01_part-02_label-nBack,2020.1.3,MacIntel,60,"[""l""]",1,[0.8968000000044754],0,90,90,90,1,suspicious,l,0,NoHit
,,,,,,,6,,2021-12-30_11h38.55.522,MemLear_ses-01_part-02_label-nBack,2020.1.3,MacIntel,60,"[""l""]",1,[0.9548000000044681],0,91,91,91,1,politeness,l,0,NoHit
,,,,,,,6,,2021-12-30_11h38.55.522,MemLear_ses-01_part-02_label-nBack,2020.1.3,MacIntel,60,"[""d""]",1,[1.1153000000044813],0,92,92,92,1,suspicious,d,1,Hit
,,,,,,,6,,2021-12-30_11h38.55.522,MemLear_ses-01_part-02_label-nBack,2020.1.3,MacIntel,60,"[""l""]",1,[0.9541999999955237],0,93,93,93,1,shark,l,0,NoHit
,,,,,,,6,,2021-12-30_11h38.55.522,MemLear_ses-01_part-02_label-nBack,2020.1.3,MacIntel,60,"[""l""]",1,[0.9656000000014728],0,94,94,94,1,detest,l,0,NoHit
,,,,,,,6,,2021-12-30_11h38.55.522,MemLear_ses-01_part-02_label-nBack,2020.1.3,MacIntel,60,"[""d""]",1,[0.9317000000029907],0,95,95,95,1,shark,d,1,Hit
,,,,,,,6,,2021-12-30_11h38.55.522,MemLear_ses-01_part-02_label-nBack,2020.1.3,MacIntel,60,"[""l""]",1,[0.8238999999985026],0,96,96,96,1,cash,l,0,NoHit
,,,,,,,6,,2021-12-30_11h38.55.522,MemLear_ses-01_part-02_label-nBack,2020.1.3,MacIntel,60,"[""l""]",1,[1.3199999999999932],0,97,97,97,1,cancer,l,0,NoHit
,,,,,,,6,,2021-12-30_11h38.55.522,MemLear_ses-01_part-02_label-nBack,2020.1.3,MacIntel,60,"[""l""]",1,[0.7389999999999759],0,98,98,98,1,pistol,l,0,NoHit
,,,,,,,6,,2021-12-30_11h38.55.522,MemLear_ses-01_part-02_label-nBack,2020.1.3,MacIntel,60,"[""l""]",0,[1.2282000000029711],0,99,99,99,1,cancer,d,1,Hit
