instructions_loop.thisRepN,instructions_loop.thisTrialN,instructions_loop.thisN,instructions_loop.thisIndex,instructions_loop.ran,text1,text2,text3,participant,Expra Code,date,expName,psychopyVersion,OS,frameRate,recog_resp.keys,recog_resp.rt,conf_resp.keys,conf_resp.rt,recog_loop.thisRepN,recog_loop.thisTrialN,recog_loop.thisN,recog_loop.thisIndex,recog_loop.ran,images,modal_categ,type,corr_ans,order,key_resp_break.keys,key_resp_break.rt,list_loop.thisRepN,list_loop.thisTrialN,list_loop.thisN,list_loop.thisIndex,list_loop.ran,recog_list
0,0,0,0,1,Welcome to the last phase of this experiment!,.,Please press the space bar to continue,7,,2022-01-07_17h39.20.686,MemLear_ses-01_part-02_label-phase2,2020.1.3,MacIntel,60,,,,,,,,,,,,,,,,,,,,,,
0,1,1,1,1,.,"In this phase, you will see some objects. 

For each object, you should indicate whether you have seen it before during the experiment.

Press LEFT ARROW for YES
Press RIGHT ARROW for NO

",Please press the space bar to continue ,7,,2022-01-07_17h39.20.686,MemLear_ses-01_part-02_label-phase2,2020.1.3,MacIntel,60,,,,,,,,,,,,,,,,,,,,,,
,,,,,,,,7,,2022-01-07_17h39.20.686,MemLear_ses-01_part-02_label-phase2,2020.1.3,MacIntel,60,right,1.5671,4,7.2571,0,0,0,81,1,stimuli/objects/toyhockeystick01.jpg,Outdoor activity & sport item,old,left,82,,,,,,,,
,,,,,,,,7,,2022-01-07_17h39.20.686,MemLear_ses-01_part-02_label-phase2,2020.1.3,MacIntel,60,right,1.2074,4,1.1464,0,1,1,14,1,stimuli/objects/pastaspoon.jpg,Kitchen & utensil,old,left,15,,,,,,,,
,,,,,,,,7,,2022-01-07_17h39.20.686,MemLear_ses-01_part-02_label-phase2,2020.1.3,MacIntel,60,right,0.8555,4,0.639,0,2,2,59,1,stimuli/objects/securitycamera.jpg,Electronic device & accessory,old,left,60,,,,,,,,
,,,,,,,,7,,2022-01-07_17h39.20.686,MemLear_ses-01_part-02_label-phase2,2020.1.3,MacIntel,60,right,0.8452,4,0.5557,0,3,3,69,1,stimuli/objects/scanner.jpg,Electronic device & accessory,old,left,70,,,,,,,,
,,,,,,,,7,,2022-01-07_17h39.20.686,MemLear_ses-01_part-02_label-phase2,2020.1.3,MacIntel,60,right,0.8456,4,0.3308,0,4,4,77,1,stimuli/objects/alarmclock01.jpg,Electronic device & accessory,new,right,78,,,,,,,,
,,,,,,,,7,,2022-01-07_17h39.20.686,MemLear_ses-01_part-02_label-phase2,2020.1.3,MacIntel,60,right,0.7753,4,0.3827,0,5,5,30,1,stimuli/objects/cleaver01.jpg,Kitchen & utensil,old,left,31,,,,,,,,
,,,,,,,,7,,2022-01-07_17h39.20.686,MemLear_ses-01_part-02_label-phase2,2020.1.3,MacIntel,60,right,0.6274,4,0.3653,0,6,6,6,1,stimuli/objects/stovetop.jpg,Kitchen & utensil,new,right,7,,,,,,,,
,,,,,,,,7,,2022-01-07_17h39.20.686,MemLear_ses-01_part-02_label-phase2,2020.1.3,MacIntel,60,right,0.7803,4,0.3395,0,7,7,5,1,stimuli/objects/tablesaw.jpg,Hand labour tool & accessory,old,left,6,,,,,,,,
,,,,,,,,7,,2022-01-07_17h39.20.686,MemLear_ses-01_part-02_label-phase2,2020.1.3,MacIntel,60,right,0.5988,4,0.2775,0,8,8,37,1,stimuli/objects/electricoutlet.jpg,Electronic device & accessory,old,left,38,,,,,,,,
,,,,,,,,7,,2022-01-07_17h39.20.686,MemLear_ses-01_part-02_label-phase2,2020.1.3,MacIntel,60,right,1.9136,4,0.2939,0,9,9,53,1,stimuli/objects/tripod01.jpg,Electronic device & accessory,new,right,54,,,,,,,,
,,,,,,,,7,,2022-01-07_17h39.20.686,MemLear_ses-01_part-02_label-phase2,2020.1.3,MacIntel,60,right,0.6631,4,0.3092,0,10,10,70,1,stimuli/objects/heatpump.jpg,Electronic device & accessory,old,left,71,,,,,,,,
,,,,,,,,7,,2022-01-07_17h39.20.686,MemLear_ses-01_part-02_label-phase2,2020.1.3,MacIntel,60,right,0.5782,4,0.2995,0,11,11,11,1,stimuli/objects/usbcable01a.jpg,Electronic device & accessory,new,right,12,,,,,,,,
,,,,,,,,7,,2022-01-07_17h39.20.686,MemLear_ses-01_part-02_label-phase2,2020.1.3,MacIntel,60,left,0.981,1,0.4085,0,12,12,43,1,stimuli/objects/umbrella04.jpg,Outdoor activity & sport item,old,left,44,,,,,,,,
,,,,,,,,7,,2022-01-07_17h39.20.686,MemLear_ses-01_part-02_label-phase2,2020.1.3,MacIntel,60,right,1.4618,4,0.7274,0,13,13,47,1,stimuli/objects/jug.jpg,Kitchen & utensil,new,right,48,,,,,,,,
,,,,,,,,7,,2022-01-07_17h39.20.686,MemLear_ses-01_part-02_label-phase2,2020.1.3,MacIntel,60,right,1.7612,4,0.3311,0,14,14,36,1,stimuli/objects/microphone01.jpg,Electronic device & accessory,new,right,37,,,,,,,,
,,,,,,,,7,,2022-01-07_17h39.20.686,MemLear_ses-01_part-02_label-phase2,2020.1.3,MacIntel,60,right,1.0091,4,0.2923,0,15,15,9,1,stimuli/objects/aluminiumfoil.jpg,Kitchen & utensil,new,right,10,,,,,,,,
,,,,,,,,7,,2022-01-07_17h39.20.686,MemLear_ses-01_part-02_label-phase2,2020.1.3,MacIntel,60,right,1.3589,4,0.2935,0,16,16,13,1,stimuli/objects/cakeplatter.jpg,Kitchen & utensil,old,left,14,,,,,,,,
,,,,,,,,7,,2022-01-07_17h39.20.686,MemLear_ses-01_part-02_label-phase2,2020.1.3,MacIntel,60,right,5.3377,3,0.3593,0,17,17,21,1,stimuli/objects/avcable.jpg,Electronic device & accessory,old,left,22,,,,,,,,
,,,,,,,,7,,2022-01-07_17h39.20.686,MemLear_ses-01_part-02_label-phase2,2020.1.3,MacIntel,60,right,0.9452,4,0.6106,0,18,18,82,1,stimuli/objects/hockeygoaliepad.jpg,Outdoor activity & sport item,new,right,83,,,,,,,,
,,,,,,,,7,,2022-01-07_17h39.20.686,MemLear_ses-01_part-02_label-phase2,2020.1.3,MacIntel,60,right,0.7611,4,0.2651,0,19,19,8,1,stimuli/objects/cameracase01a.jpg,Electronic device & accessory,old,left,9,,,,,,,,
,,,,,,,,7,,2022-01-07_17h39.20.686,MemLear_ses-01_part-02_label-phase2,2020.1.3,MacIntel,60,right,2.079,4,0.3596,0,20,20,45,1,stimuli/objects/studiolight.jpg,Electronic device & accessory,new,right,46,,,,,,,,
,,,,,,,,7,,2022-01-07_17h39.20.686,MemLear_ses-01_part-02_label-phase2,2020.1.3,MacIntel,60,right,0.7595,4,0.4396,0,21,21,0,1,stimuli/objects/ipod.jpg,Electronic device & accessory,old,left,1,,,,,,,,
,,,,,,,,7,,2022-01-07_17h39.20.686,MemLear_ses-01_part-02_label-phase2,2020.1.3,MacIntel,60,right,0.6154,4,0.21,0,22,22,78,1,stimuli/objects/wateringcan.jpg,Hand labour tool & accessory,old,left,79,,,,,,,,
,,,,,,,,7,,2022-01-07_17h39.20.686,MemLear_ses-01_part-02_label-phase2,2020.1.3,MacIntel,60,right,0.6309,4,0.256,0,23,23,3,1,stimuli/objects/charcoalbarbecue.jpg,Outdoor activity & sport item,old,left,4,,,,,,,,
,,,,,,,,7,,2022-01-07_17h39.20.686,MemLear_ses-01_part-02_label-phase2,2020.1.3,MacIntel,60,right,1.0653,4,0.1058,0,24,24,64,1,stimuli/objects/telephone01b.jpg,Electronic device & accessory,old,left,65,,,,,,,,
,,,,,,,,7,,2022-01-07_17h39.20.686,MemLear_ses-01_part-02_label-phase2,2020.1.3,MacIntel,60,right,1.4977,4,0.0294,0,25,25,79,1,stimuli/objects/espressomachine.jpg,Kitchen & utensil,new,right,80,,,,,,,,
,,,,,,,,7,,2022-01-07_17h39.20.686,MemLear_ses-01_part-02_label-phase2,2020.1.3,MacIntel,60,right,0.9935,4,0.1401,0,26,26,66,1,stimuli/objects/coffeemachine.jpg,Electronic device & accessory,old,left,67,,,,,,,,
,,,,,,,,7,,2022-01-07_17h39.20.686,MemLear_ses-01_part-02_label-phase2,2020.1.3,MacIntel,60,right,0.7931,4,0.0793,0,27,27,84,1,stimuli/objects/podium.jpg,Outdoor activity & sport item,old,left,85,,,,,,,,
,,,,,,,,7,,2022-01-07_17h39.20.686,MemLear_ses-01_part-02_label-phase2,2020.1.3,MacIntel,60,left,3.3476,1,0.0808,0,28,28,41,1,stimuli/objects/beachumbrella01.jpg,Outdoor activity & sport item,old,left,42,,,,,,,,
,,,,,,,,7,,2022-01-07_17h39.20.686,MemLear_ses-01_part-02_label-phase2,2020.1.3,MacIntel,60,right,1.0772,4,0.1925,0,29,29,75,1,stimuli/objects/shotglass.jpg,Kitchen & utensil,old,left,76,,,,,,,,
,,,,,,,,7,,2022-01-07_17h39.20.686,MemLear_ses-01_part-02_label-phase2,2020.1.3,MacIntel,60,right,1.0985,4,0.3908,0,30,30,74,1,stimuli/objects/speaker04.jpg,Electronic device & accessory,new,right,75,,,,,,,,
,,,,,,,,7,,2022-01-07_17h39.20.686,MemLear_ses-01_part-02_label-phase2,2020.1.3,MacIntel,60,left,0.9116,4,0.4496,0,31,31,34,1,stimuli/objects/knife03.jpg,Kitchen & utensil,old,left,35,,,,,,,,
,,,,,,,,7,,2022-01-07_17h39.20.686,MemLear_ses-01_part-02_label-phase2,2020.1.3,MacIntel,60,right,1.0777,4,0.3453,0,32,32,23,1,stimuli/objects/dishrack.jpg,Kitchen & utensil,old,left,24,,,,,,,,
,,,,,,,,7,,2022-01-07_17h39.20.686,MemLear_ses-01_part-02_label-phase2,2020.1.3,MacIntel,60,right,0.8109,4,0.275,0,33,33,31,1,stimuli/objects/filmnegative.jpg,Electronic device & accessory,old,left,32,,,,,,,,
,,,,,,,,7,,2022-01-07_17h39.20.686,MemLear_ses-01_part-02_label-phase2,2020.1.3,MacIntel,60,right,1.8469,4,0.0741,0,34,34,52,1,stimuli/objects/coffeemaker.jpg,Kitchen & utensil,old,left,53,,,,,,,,
,,,,,,,,7,,2022-01-07_17h39.20.686,MemLear_ses-01_part-02_label-phase2,2020.1.3,MacIntel,60,right,1.3236,4,0.0271,0,35,35,1,1,stimuli/objects/fork03c.jpg,Kitchen & utensil,old,left,2,,,,,,,,
,,,,,,,,7,,2022-01-07_17h39.20.686,MemLear_ses-01_part-02_label-phase2,2020.1.3,MacIntel,60,right,3.3345,1,0.5596,0,36,36,49,1,stimuli/objects/usbkey.jpg,Electronic device & accessory,old,left,50,,,,,,,,
,,,,,,,,7,,2022-01-07_17h39.20.686,MemLear_ses-01_part-02_label-phase2,2020.1.3,MacIntel,60,right,1.5663,4,0.5988,0,37,37,24,1,stimuli/objects/fuse.jpg,Electronic device & accessory,new,right,25,,,,,,,,
,,,,,,,,7,,2022-01-07_17h39.20.686,MemLear_ses-01_part-02_label-phase2,2020.1.3,MacIntel,60,right,0.6423,4,0.1219,0,38,38,2,1,stimuli/objects/martiniglass01b.jpg,Kitchen & utensil,old,left,3,,,,,,,,
,,,,,,,,7,,2022-01-07_17h39.20.686,MemLear_ses-01_part-02_label-phase2,2020.1.3,MacIntel,60,right,2.1522,4,0.1582,0,39,39,10,1,stimuli/objects/adjustablewrench01b.jpg,Hand labour tool & accessory,old,left,11,,,,,,,,
,,,,,,,,7,,2022-01-07_17h39.20.686,MemLear_ses-01_part-02_label-phase2,2020.1.3,MacIntel,60,right,0.9103,4,0.131,0,40,40,38,1,stimuli/objects/caulking.jpg,Hand labour tool & accessory,old,left,39,,,,,,,,
,,,,,,,,7,,2022-01-07_17h39.20.686,MemLear_ses-01_part-02_label-phase2,2020.1.3,MacIntel,60,right,2.2957,4,0.0468,0,41,41,39,1,stimuli/objects/screwdriver04b.jpg,Hand labour tool & accessory,new,right,40,,,,,,,,
,,,,,,,,7,,2022-01-07_17h39.20.686,MemLear_ses-01_part-02_label-phase2,2020.1.3,MacIntel,60,right,0.9928,4,0.1223,0,42,42,27,1,stimuli/objects/surfboard.jpg,Outdoor activity & sport item,old,left,28,,,,,,,,
,,,,,,,,7,,2022-01-07_17h39.20.686,MemLear_ses-01_part-02_label-phase2,2020.1.3,MacIntel,60,right,0.6549,4,0.1095,0,43,43,85,1,stimuli/objects/muffintray01.jpg,Kitchen & utensil,old,left,86,,,,,,,,
,,,,,,,,7,,2022-01-07_17h39.20.686,MemLear_ses-01_part-02_label-phase2,2020.1.3,MacIntel,60,right,0.9767,4,0.2258,0,44,44,87,1,stimuli/objects/cassettetape01a.jpg,Electronic device & accessory,new,right,88,,,,,,,,
,,,,,,,,7,,2022-01-07_17h39.20.686,MemLear_ses-01_part-02_label-phase2,2020.1.3,MacIntel,60,right,0.6756,4,0.0928,0,45,45,42,1,stimuli/objects/microwave.jpg,Kitchen & utensil,new,right,43,,,,,,,,
,,,,,,,,7,,2022-01-07_17h39.20.686,MemLear_ses-01_part-02_label-phase2,2020.1.3,MacIntel,60,right,0.6271,4,0.1888,0,46,46,83,1,stimuli/objects/spotlight.jpg,Electronic device & accessory,old,left,84,,,,,,,,
,,,,,,,,7,,2022-01-07_17h39.20.686,MemLear_ses-01_part-02_label-phase2,2020.1.3,MacIntel,60,right,0.8775,4,0.1965,0,47,47,62,1,stimuli/objects/garlicpress02a.jpg,Kitchen & utensil,new,right,63,,,,,,,,
,,,,,,,,7,,2022-01-07_17h39.20.686,MemLear_ses-01_part-02_label-phase2,2020.1.3,MacIntel,60,right,2.0243,4,0.2967,0,48,48,65,1,stimuli/objects/cuttingpliers02.jpg,Hand labour tool & accessory,old,left,66,,,,,,,,
,,,,,,,,7,,2022-01-07_17h39.20.686,MemLear_ses-01_part-02_label-phase2,2020.1.3,MacIntel,60,left,1.2931,2,0.6317,0,49,49,55,1,stimuli/objects/fonduefork01.jpg,Kitchen & utensil,old,left,56,,,,,,,,
,,,,,,,,7,,2022-01-07_17h39.20.686,MemLear_ses-01_part-02_label-phase2,2020.1.3,MacIntel,60,right,1.9013,4,1.1121,0,50,50,67,1,stimuli/objects/foodprocessor.jpg,Kitchen & utensil,new,right,68,,,,,,,,
,,,,,,,,7,,2022-01-07_17h39.20.686,MemLear_ses-01_part-02_label-phase2,2020.1.3,MacIntel,60,left,0.8783,4,0.5576,0,51,51,33,1,stimuli/objects/powercable.jpg,Electronic device & accessory,old,left,34,,,,,,,,
,,,,,,,,7,,2022-01-07_17h39.20.686,MemLear_ses-01_part-02_label-phase2,2020.1.3,MacIntel,60,left,0.809,4,0.0593,0,52,52,44,1,stimuli/objects/lightbulb01.jpg,Electronic device & accessory,old,left,45,,,,,,,,
,,,,,,,,7,,2022-01-07_17h39.20.686,MemLear_ses-01_part-02_label-phase2,2020.1.3,MacIntel,60,right,0.8759,4,0.0785,0,53,53,60,1,stimuli/objects/payphone.jpg,Electronic device & accessory,old,left,61,,,,,,,,
,,,,,,,,7,,2022-01-07_17h39.20.686,MemLear_ses-01_part-02_label-phase2,2020.1.3,MacIntel,60,right,0.7142,4,0.128,0,54,54,80,1,stimuli/objects/ladder.jpg,Hand labour tool & accessory,new,right,81,,,,,,,,
,,,,,,,,7,,2022-01-07_17h39.20.686,MemLear_ses-01_part-02_label-phase2,2020.1.3,MacIntel,60,right,0.6471,4,0.1251,0,55,55,19,1,stimuli/objects/fan.jpg,Electronic device & accessory,new,right,20,,,,,,,,
,,,,,,,,7,,2022-01-07_17h39.20.686,MemLear_ses-01_part-02_label-phase2,2020.1.3,MacIntel,60,right,0.9444,4,0.1808,0,56,56,35,1,stimuli/objects/fryingpan02a.jpg,Kitchen & utensil,old,left,36,,,,,,,,
,,,,,,,,7,,2022-01-07_17h39.20.686,MemLear_ses-01_part-02_label-phase2,2020.1.3,MacIntel,60,left,2.9458,1,0.6778,0,57,57,16,1,stimuli/objects/knifesharpener.jpg,Hand labour tool & accessory,old,left,17,,,,,,,,
,,,,,,,,7,,2022-01-07_17h39.20.686,MemLear_ses-01_part-02_label-phase2,2020.1.3,MacIntel,60,right,0.8228,4,0.3399,0,58,58,86,1,stimuli/objects/floppydisk02a.jpg,Electronic device & accessory,new,right,87,,,,,,,,
,,,,,,,,7,,2022-01-07_17h39.20.686,MemLear_ses-01_part-02_label-phase2,2020.1.3,MacIntel,60,right,1.3233,1,0.9769,0,59,59,4,1,stimuli/objects/fanheater.jpg,Electronic device & accessory,old,left,5,,,,,,,,
,,,,,,,,7,,2022-01-07_17h39.20.686,MemLear_ses-01_part-02_label-phase2,2020.1.3,MacIntel,60,right,1.1433,4,0.9451,0,60,60,12,1,stimuli/objects/fanblades.jpg,Electronic device & accessory,new,right,13,,,,,,,,
,,,,,,,,7,,2022-01-07_17h39.20.686,MemLear_ses-01_part-02_label-phase2,2020.1.3,MacIntel,60,right,0.7251,4,0.0551,0,61,61,61,1,stimuli/objects/cork02.jpg,Kitchen & utensil,new,right,62,,,,,,,,
,,,,,,,,7,,2022-01-07_17h39.20.686,MemLear_ses-01_part-02_label-phase2,2020.1.3,MacIntel,60,right,1.6643,4,0.1745,0,62,62,73,1,stimuli/objects/djmixer02.jpg,Electronic device & accessory,old,left,74,,,,,,,,
,,,,,,,,7,,2022-01-07_17h39.20.686,MemLear_ses-01_part-02_label-phase2,2020.1.3,MacIntel,60,right,0.7501,4,0.1562,0,63,63,15,1,stimuli/objects/spicerack.jpg,Kitchen & utensil,old,left,16,,,,,,,,
,,,,,,,,7,,2022-01-07_17h39.20.686,MemLear_ses-01_part-02_label-phase2,2020.1.3,MacIntel,60,right,6.3877,4,0.0639,0,64,64,18,1,stimuli/objects/soundmixer.jpg,Electronic device & accessory,old,left,19,,,,,,,,
,,,,,,,,7,,2022-01-07_17h39.20.686,MemLear_ses-01_part-02_label-phase2,2020.1.3,MacIntel,60,left,2.5161,2,0.7266,0,65,65,63,1,stimuli/objects/peppermill02b.jpg,Kitchen & utensil,old,left,64,,,,,,,,
,,,,,,,,7,,2022-01-07_17h39.20.686,MemLear_ses-01_part-02_label-phase2,2020.1.3,MacIntel,60,right,1.846,3,0.2083,0,66,66,32,1,stimuli/objects/thermos.jpg,Kitchen & utensil,new,right,33,,,,,,,,
,,,,,,,,7,,2022-01-07_17h39.20.686,MemLear_ses-01_part-02_label-phase2,2020.1.3,MacIntel,60,right,0.8269,4,0.2597,0,67,67,50,1,stimuli/objects/hockeygoaliemask.jpg,Outdoor activity & sport item,new,right,51,,,,,,,,
,,,,,,,,7,,2022-01-07_17h39.20.686,MemLear_ses-01_part-02_label-phase2,2020.1.3,MacIntel,60,left,2.5472,2,0.4932,0,68,68,48,1,stimuli/objects/toasteroven.jpg,Kitchen & utensil,old,left,49,,,,,,,,
,,,,,,,,7,,2022-01-07_17h39.20.686,MemLear_ses-01_part-02_label-phase2,2020.1.3,MacIntel,60,right,1.0098,4,2.0026,0,69,69,57,1,stimuli/objects/spatula04.jpg,Kitchen & utensil,old,left,58,,,,,,,,
,,,,,,,,7,,2022-01-07_17h39.20.686,MemLear_ses-01_part-02_label-phase2,2020.1.3,MacIntel,60,right,1.194,4,0.8142,0,70,70,46,1,stimuli/objects/footballhelmet.jpg,Outdoor activity & sport item,new,right,47,,,,,,,,
,,,,,,,,7,,2022-01-07_17h39.20.686,MemLear_ses-01_part-02_label-phase2,2020.1.3,MacIntel,60,right,1.5095,4,0.1388,0,71,71,22,1,stimuli/objects/outletadapter.jpg,Electronic device & accessory,new,right,23,,,,,,,,
,,,,,,,,7,,2022-01-07_17h39.20.686,MemLear_ses-01_part-02_label-phase2,2020.1.3,MacIntel,60,left,1.4924,3,0.4596,0,72,72,7,1,stimuli/objects/expansioncard.jpg,Electronic device & accessory,old,left,8,,,,,,,,
,,,,,,,,7,,2022-01-07_17h39.20.686,MemLear_ses-01_part-02_label-phase2,2020.1.3,MacIntel,60,right,0.7416,4,0.2058,0,73,73,26,1,stimuli/objects/nutcracker01.jpg,Kitchen & utensil,new,right,27,,,,,,,,
,,,,,,,,7,,2022-01-07_17h39.20.686,MemLear_ses-01_part-02_label-phase2,2020.1.3,MacIntel,60,right,1.0251,4,0.1428,0,74,74,89,1,stimuli/objects/minifridge.jpg,Kitchen & utensil,old,left,90,,,,,,,,
,,,,,,,,7,,2022-01-07_17h39.20.686,MemLear_ses-01_part-02_label-phase2,2020.1.3,MacIntel,60,left,2.0281,2,0.2754,0,75,75,28,1,stimuli/objects/crocodileclips.jpg,Electronic device & accessory,old,left,29,,,,,,,,
,,,,,,,,7,,2022-01-07_17h39.20.686,MemLear_ses-01_part-02_label-phase2,2020.1.3,MacIntel,60,right,2.538,4,0.4269,0,76,76,72,1,stimuli/objects/cellphone.jpg,Electronic device & accessory,new,right,73,,,,,,,,
,,,,,,,,7,,2022-01-07_17h39.20.686,MemLear_ses-01_part-02_label-phase2,2020.1.3,MacIntel,60,right,0.9253,4,0.3097,0,77,77,76,1,stimuli/objects/blender.jpg,Kitchen & utensil,new,right,77,,,,,,,,
,,,,,,,,7,,2022-01-07_17h39.20.686,MemLear_ses-01_part-02_label-phase2,2020.1.3,MacIntel,60,right,0.7942,4,0.0212,0,78,78,54,1,stimuli/objects/lectern01.jpg,Electronic device & accessory,old,left,55,,,,,,,,
,,,,,,,,7,,2022-01-07_17h39.20.686,MemLear_ses-01_part-02_label-phase2,2020.1.3,MacIntel,60,left,3.2112,2,0.3274,0,79,79,51,1,stimuli/objects/photocopier.jpg,Electronic device & accessory,old,left,52,,,,,,,,
,,,,,,,,7,,2022-01-07_17h39.20.686,MemLear_ses-01_part-02_label-phase2,2020.1.3,MacIntel,60,left,3.6332,1,0.541,0,80,80,20,1,stimuli/objects/whisk.jpg,Kitchen & utensil,old,left,21,,,,,,,,
,,,,,,,,7,,2022-01-07_17h39.20.686,MemLear_ses-01_part-02_label-phase2,2020.1.3,MacIntel,60,right,1.5745,4,2.5148,0,81,81,25,1,stimuli/objects/faxmachine.jpg,Electronic device & accessory,old,left,26,,,,,,,,
,,,,,,,,7,,2022-01-07_17h39.20.686,MemLear_ses-01_part-02_label-phase2,2020.1.3,MacIntel,60,right,0.7119,4,0.0407,0,82,82,71,1,stimuli/objects/contactlens.jpg,Kitchen & utensil,new,right,72,,,,,,,,
,,,,,,,,7,,2022-01-07_17h39.20.686,MemLear_ses-01_part-02_label-phase2,2020.1.3,MacIntel,60,right,0.701,4,0.0477,0,83,83,68,1,stimuli/objects/bowl02a.jpg,Kitchen & utensil,old,left,69,,,,,,,,
,,,,,,,,7,,2022-01-07_17h39.20.686,MemLear_ses-01_part-02_label-phase2,2020.1.3,MacIntel,60,right,1.0781,4,0.0216,0,84,84,56,1,stimuli/objects/chocolatefonduedish.jpg,Kitchen & utensil,old,left,57,,,,,,,,
,,,,,,,,7,,2022-01-07_17h39.20.686,MemLear_ses-01_part-02_label-phase2,2020.1.3,MacIntel,60,right,1.4002,4,0.1592,0,85,85,40,1,stimuli/objects/beermug01a.jpg,Kitchen & utensil,old,left,41,,,,,,,,
,,,,,,,,7,,2022-01-07_17h39.20.686,MemLear_ses-01_part-02_label-phase2,2020.1.3,MacIntel,60,left,1.7457,3,0.7135,0,86,86,58,1,stimuli/objects/servingspoon01.jpg,Kitchen & utensil,old,left,59,,,,,,,,
,,,,,,,,7,,2022-01-07_17h39.20.686,MemLear_ses-01_part-02_label-phase2,2020.1.3,MacIntel,60,right,0.9756,4,0.5639,0,87,87,88,1,stimuli/objects/cuttingboard.jpg,Kitchen & utensil,old,left,89,,,,,,,,
,,,,,,,,7,,2022-01-07_17h39.20.686,MemLear_ses-01_part-02_label-phase2,2020.1.3,MacIntel,60,left,1.2143,4,0.0932,0,88,88,17,1,stimuli/objects/ethernetcable02.jpg,Electronic device & accessory,new,right,18,,,,,,,,
,,,,,,,,7,,2022-01-07_17h39.20.686,MemLear_ses-01_part-02_label-phase2,2020.1.3,MacIntel,60,right,1.0943,4,0.0727,0,89,89,29,1,stimuli/objects/walkietalkie.jpg,Electronic device & accessory,old,left,30,,,,,,,,
,,,,,,,,7,,2022-01-07_17h39.20.686,MemLear_ses-01_part-02_label-phase2,2020.1.3,MacIntel,60,,,,,,,,,,,,,,,space,3.4367,0,0,0,0,1,condition_files/ImagesforRecog4_1.csv
,,,,,,,,7,,2022-01-07_17h39.20.686,MemLear_ses-01_part-02_label-phase2,2020.1.3,MacIntel,60,left,7.9107,1,0.2405,0,0,0,23,1,stimuli/objects/shovel01.jpg,Hand labour tool & accessory,new,right,114,,,,,,,,
,,,,,,,,7,,2022-01-07_17h39.20.686,MemLear_ses-01_part-02_label-phase2,2020.1.3,MacIntel,60,right,0.9173,4,0.409,0,1,1,76,1,stimuli/objects/tableknife02.jpg,Kitchen & utensil,new,right,167,,,,,,,,
,,,,,,,,7,,2022-01-07_17h39.20.686,MemLear_ses-01_part-02_label-phase2,2020.1.3,MacIntel,60,right,1.0628,4,0.0769,0,2,2,11,1,stimuli/objects/wheelbarrow01.jpg,Hand labour tool & accessory,new,right,102,,,,,,,,
,,,,,,,,7,,2022-01-07_17h39.20.686,MemLear_ses-01_part-02_label-phase2,2020.1.3,MacIntel,60,right,1.2739,4,0.5401,0,3,3,35,1,stimuli/objects/spatula03.jpg,Kitchen & utensil,old,left,126,,,,,,,,
,,,,,,,,7,,2022-01-07_17h39.20.686,MemLear_ses-01_part-02_label-phase2,2020.1.3,MacIntel,60,right,0.8786,4,0.1101,0,4,4,27,1,stimuli/objects/squeegee01b.jpg,Hand labour tool & accessory,old,left,118,,,,,,,,
,,,,,,,,7,,2022-01-07_17h39.20.686,MemLear_ses-01_part-02_label-phase2,2020.1.3,MacIntel,60,right,0.9077,4,0.1615,0,5,5,68,1,stimuli/objects/antenna.jpg,Electronic device & accessory,new,right,159,,,,,,,,
,,,,,,,,7,,2022-01-07_17h39.20.686,MemLear_ses-01_part-02_label-phase2,2020.1.3,MacIntel,60,right,0.7608,4,0.156,0,6,6,38,1,stimuli/objects/measuringspoon.jpg,Kitchen & utensil,old,left,129,,,,,,,,
,,,,,,,,7,,2022-01-07_17h39.20.686,MemLear_ses-01_part-02_label-phase2,2020.1.3,MacIntel,60,right,1.5931,4,0.1246,0,7,7,48,1,stimuli/objects/camera01a.jpg,Electronic device & accessory,old,left,139,,,,,,,,
,,,,,,,,7,,2022-01-07_17h39.20.686,MemLear_ses-01_part-02_label-phase2,2020.1.3,MacIntel,60,right,0.6415,4,0.1734,0,8,8,9,1,stimuli/objects/satellitedish01.jpg,Electronic device & accessory,new,right,100,,,,,,,,
,,,,,,,,7,,2022-01-07_17h39.20.686,MemLear_ses-01_part-02_label-phase2,2020.1.3,MacIntel,60,right,0.6587,4,0.1447,0,9,9,53,1,stimuli/objects/megaphone.jpg,Electronic device & accessory,new,right,144,,,,,,,,
,,,,,,,,7,,2022-01-07_17h39.20.686,MemLear_ses-01_part-02_label-phase2,2020.1.3,MacIntel,60,right,1.5308,4,0.1584,0,10,10,84,1,stimuli/objects/kneepad01c.jpg,Outdoor activity & sport item,old,left,175,,,,,,,,
,,,,,,,,7,,2022-01-07_17h39.20.686,MemLear_ses-01_part-02_label-phase2,2020.1.3,MacIntel,60,right,2.063,4,0.1624,0,11,11,14,1,stimuli/objects/taperecorder.jpg,Electronic device & accessory,old,left,105,,,,,,,,
,,,,,,,,7,,2022-01-07_17h39.20.686,MemLear_ses-01_part-02_label-phase2,2020.1.3,MacIntel,60,right,1.8342,4,0.1608,0,12,12,49,1,stimuli/objects/carantenna.jpg,Electronic device & accessory,old,left,140,,,,,,,,
,,,,,,,,7,,2022-01-07_17h39.20.686,MemLear_ses-01_part-02_label-phase2,2020.1.3,MacIntel,60,right,1.0486,4,0.2242,0,13,13,28,1,stimuli/objects/phonejack.jpg,Electronic device & accessory,old,left,119,,,,,,,,
,,,,,,,,7,,2022-01-07_17h39.20.686,MemLear_ses-01_part-02_label-phase2,2020.1.3,MacIntel,60,right,0.8566,4,0.4255,0,14,14,59,1,stimuli/objects/icecubetray01a.jpg,Kitchen & utensil,new,right,150,,,,,,,,
,,,,,,,,7,,2022-01-07_17h39.20.686,MemLear_ses-01_part-02_label-phase2,2020.1.3,MacIntel,60,right,1.3134,4,0.0907,0,15,15,45,1,stimuli/objects/breadknife.jpg,Kitchen & utensil,old,left,136,,,,,,,,
,,,,,,,,7,,2022-01-07_17h39.20.686,MemLear_ses-01_part-02_label-phase2,2020.1.3,MacIntel,60,right,1.151,4,0.2642,0,16,16,62,1,stimuli/objects/hourglass.jpg,Kitchen & utensil,new,right,153,,,,,,,,
,,,,,,,,7,,2022-01-07_17h39.20.686,MemLear_ses-01_part-02_label-phase2,2020.1.3,MacIntel,60,right,0.6751,4,4.2681,0,17,17,42,1,stimuli/objects/icepack.jpg,Kitchen & utensil,old,left,133,,,,,,,,
,,,,,,,,7,,2022-01-07_17h39.20.686,MemLear_ses-01_part-02_label-phase2,2020.1.3,MacIntel,60,left,2.3987,1,2.1809,0,18,18,1,1,stimuli/objects/nintendods.jpg,Electronic device & accessory,old,left,92,,,,,,,,
,,,,,,,,7,,2022-01-07_17h39.20.686,MemLear_ses-01_part-02_label-phase2,2020.1.3,MacIntel,60,right,75.9169,2,2.3141,0,19,19,85,1,stimuli/objects/gravyboat.jpg,Kitchen & utensil,new,right,176,,,,,,,,
,,,,,,,,7,,2022-01-07_17h39.20.686,MemLear_ses-01_part-02_label-phase2,2020.1.3,MacIntel,60,right,4.3671,3,1.4497,0,20,20,51,1,stimuli/objects/remotecontrol04.jpg,Electronic device & accessory,old,left,142,,,,,,,,
,,,,,,,,7,,2022-01-07_17h39.20.686,MemLear_ses-01_part-02_label-phase2,2020.1.3,MacIntel,60,right,0.9074,3,0.2627,0,21,21,19,1,stimuli/objects/jack.jpg,Electronic device & accessory,old,left,110,,,,,,,,
,,,,,,,,7,,2022-01-07_17h39.20.686,MemLear_ses-01_part-02_label-phase2,2020.1.3,MacIntel,60,right,2.0073,3,0.6114,0,22,22,26,1,stimuli/objects/printer02.jpg,Electronic device & accessory,new,right,117,,,,,,,,
,,,,,,,,7,,2022-01-07_17h39.20.686,MemLear_ses-01_part-02_label-phase2,2020.1.3,MacIntel,60,left,1.1102,4,0.3954,0,23,23,82,1,stimuli/objects/lightswitch01.jpg,Electronic device & accessory,old,left,173,,,,,,,,
,,,,,,,,7,,2022-01-07_17h39.20.686,MemLear_ses-01_part-02_label-phase2,2020.1.3,MacIntel,60,right,0.9456,4,0.2127,0,24,24,80,1,stimuli/objects/boltcutter.jpg,Hand labour tool & accessory,old,left,171,,,,,,,,
,,,,,,,,7,,2022-01-07_17h39.20.686,MemLear_ses-01_part-02_label-phase2,2020.1.3,MacIntel,60,right,1.9629,4,0.5799,0,25,25,64,1,stimuli/objects/grill.jpg,Kitchen & utensil,old,left,155,,,,,,,,
,,,,,,,,7,,2022-01-07_17h39.20.686,MemLear_ses-01_part-02_label-phase2,2020.1.3,MacIntel,60,right,1.3955,4,0.2238,0,26,26,52,1,stimuli/objects/papershredder.jpg,Electronic device & accessory,new,right,143,,,,,,,,
,,,,,,,,7,,2022-01-07_17h39.20.686,MemLear_ses-01_part-02_label-phase2,2020.1.3,MacIntel,60,left,1.711,4,0.0588,0,27,27,47,1,stimuli/objects/peeler01.jpg,Kitchen & utensil,old,left,138,,,,,,,,
,,,,,,,,7,,2022-01-07_17h39.20.686,MemLear_ses-01_part-02_label-phase2,2020.1.3,MacIntel,60,right,0.7435,4,0.058,0,28,28,17,1,stimuli/objects/styrofoamcup.jpg,Kitchen & utensil,new,right,108,,,,,,,,
,,,,,,,,7,,2022-01-07_17h39.20.686,MemLear_ses-01_part-02_label-phase2,2020.1.3,MacIntel,60,right,0.8134,4,0.0556,0,29,29,88,1,stimuli/objects/strainer01b.jpg,Kitchen & utensil,new,right,179,,,,,,,,
,,,,,,,,7,,2022-01-07_17h39.20.686,MemLear_ses-01_part-02_label-phase2,2020.1.3,MacIntel,60,left,6.8369,3,0.3751,0,30,30,50,1,stimuli/objects/walkman.jpg,Electronic device & accessory,old,left,141,,,,,,,,
,,,,,,,,7,,2022-01-07_17h39.20.686,MemLear_ses-01_part-02_label-phase2,2020.1.3,MacIntel,60,left,7.6547,4,0.0755,0,31,31,18,1,stimuli/objects/fridge.jpg,Kitchen & utensil,old,left,109,,,,,,,,
,,,,,,,,7,,2022-01-07_17h39.20.686,MemLear_ses-01_part-02_label-phase2,2020.1.3,MacIntel,60,right,0.9439,4,0.0226,0,32,32,60,1,stimuli/objects/icebucket.jpg,Kitchen & utensil,old,left,151,,,,,,,,
,,,,,,,,7,,2022-01-07_17h39.20.686,MemLear_ses-01_part-02_label-phase2,2020.1.3,MacIntel,60,left,0.999,4,0.3396,0,33,33,46,1,stimuli/objects/audiocablesplitter.jpg,Electronic device & accessory,old,left,137,,,,,,,,
,,,,,,,,7,,2022-01-07_17h39.20.686,MemLear_ses-01_part-02_label-phase2,2020.1.3,MacIntel,60,left,0.8639,4,0.4964,0,34,34,56,1,stimuli/objects/potatomasher03b.jpg,Kitchen & utensil,old,left,147,,,,,,,,
,,,,,,,,7,,2022-01-07_17h39.20.686,MemLear_ses-01_part-02_label-phase2,2020.1.3,MacIntel,60,right,1.2266,4,0.0071,0,35,35,24,1,stimuli/objects/wire.jpg,Electronic device & accessory,new,right,115,,,,,,,,
,,,,,,,,7,,2022-01-07_17h39.20.686,MemLear_ses-01_part-02_label-phase2,2020.1.3,MacIntel,60,left,2.046,4,0.0565,0,36,36,21,1,stimuli/objects/funnel.jpg,Kitchen & utensil,old,left,112,,,,,,,,
,,,,,,,,7,,2022-01-07_17h39.20.686,MemLear_ses-01_part-02_label-phase2,2020.1.3,MacIntel,60,right,2.6452,4,0.0597,0,37,37,57,1,stimuli/objects/extensioncord.jpg,Electronic device & accessory,old,left,148,,,,,,,,
,,,,,,,,7,,2022-01-07_17h39.20.686,MemLear_ses-01_part-02_label-phase2,2020.1.3,MacIntel,60,left,0.9757,4,0.0412,0,38,38,43,1,stimuli/objects/swissarmyknife01a.jpg,Hand labour tool & accessory,old,left,134,,,,,,,,
,,,,,,,,7,,2022-01-07_17h39.20.686,MemLear_ses-01_part-02_label-phase2,2020.1.3,MacIntel,60,left,2.3177,4,0.0733,0,39,39,25,1,stimuli/objects/oven.jpg,Kitchen & utensil,old,left,116,,,,,,,,
,,,,,,,,7,,2022-01-07_17h39.20.686,MemLear_ses-01_part-02_label-phase2,2020.1.3,MacIntel,60,right,0.9095,4,0.1263,0,40,40,36,1,stimuli/objects/tupperware03a.jpg,Kitchen & utensil,old,left,127,,,,,,,,
,,,,,,,,7,,2022-01-07_17h39.20.686,MemLear_ses-01_part-02_label-phase2,2020.1.3,MacIntel,60,right,2.8256,4,0.3929,0,41,41,54,1,stimuli/objects/butterdish.jpg,Kitchen & utensil,new,right,145,,,,,,,,
,,,,,,,,7,,2022-01-07_17h39.20.686,MemLear_ses-01_part-02_label-phase2,2020.1.3,MacIntel,60,left,3.0195,4,0.0416,0,42,42,30,1,stimuli/objects/backpack01a.jpg,Outdoor activity & sport item,old,left,121,,,,,,,,
,,,,,,,,7,,2022-01-07_17h39.20.686,MemLear_ses-01_part-02_label-phase2,2020.1.3,MacIntel,60,right,1.039,4,0.0783,0,43,43,8,1,stimuli/objects/snowshovel.jpg,Hand labour tool & accessory,old,left,99,,,,,,,,
,,,,,,,,7,,2022-01-07_17h39.20.686,MemLear_ses-01_part-02_label-phase2,2020.1.3,MacIntel,60,right,0.9447,4,0.0723,0,44,44,77,1,stimuli/objects/canister.jpg,Kitchen & utensil,old,left,168,,,,,,,,
,,,,,,,,7,,2022-01-07_17h39.20.686,MemLear_ses-01_part-02_label-phase2,2020.1.3,MacIntel,60,right,0.8946,4,0.0904,0,45,45,41,1,stimuli/objects/bottleopener01.jpg,Kitchen & utensil,new,right,132,,,,,,,,
,,,,,,,,7,,2022-01-07_17h39.20.686,MemLear_ses-01_part-02_label-phase2,2020.1.3,MacIntel,60,right,0.6303,4,0.0462,0,46,46,2,1,stimuli/objects/waterbottle03.jpg,Kitchen & utensil,old,left,93,,,,,,,,
,,,,,,,,7,,2022-01-07_17h39.20.686,MemLear_ses-01_part-02_label-phase2,2020.1.3,MacIntel,60,right,0.8612,4,0.0759,0,47,47,74,1,stimuli/objects/radio01.jpg,Electronic device & accessory,old,left,165,,,,,,,,
,,,,,,,,7,,2022-01-07_17h39.20.686,MemLear_ses-01_part-02_label-phase2,2020.1.3,MacIntel,60,right,4.3981,4,0.0585,0,48,48,12,1,stimuli/objects/kitchenscale01a.jpg,Kitchen & utensil,old,left,103,,,,,,,,
,,,,,,,,7,,2022-01-07_17h39.20.686,MemLear_ses-01_part-02_label-phase2,2020.1.3,MacIntel,60,right,0.9086,4,0.0967,0,49,49,81,1,stimuli/objects/cowbell.jpg,Kitchen & utensil,old,left,172,,,,,,,,
,,,,,,,,7,,2022-01-07_17h39.20.686,MemLear_ses-01_part-02_label-phase2,2020.1.3,MacIntel,60,right,3.3805,4,0.5264,0,50,50,79,1,stimuli/objects/handmixer01d.jpg,Kitchen & utensil,old,left,170,,,,,,,,
,,,,,,,,7,,2022-01-07_17h39.20.686,MemLear_ses-01_part-02_label-phase2,2020.1.3,MacIntel,60,right,1.0507,4,0.0743,0,51,51,67,1,stimuli/objects/pitcher02b.jpg,Kitchen & utensil,old,left,158,,,,,,,,
,,,,,,,,7,,2022-01-07_17h39.20.686,MemLear_ses-01_part-02_label-phase2,2020.1.3,MacIntel,60,right,0.7752,4,0.3266,0,52,52,16,1,stimuli/objects/freezer02.jpg,Kitchen & utensil,old,left,107,,,,,,,,
,,,,,,,,7,,2022-01-07_17h39.20.686,MemLear_ses-01_part-02_label-phase2,2020.1.3,MacIntel,60,right,1.2263,4,0.1235,0,53,53,83,1,stimuli/objects/carlighter02.jpg,Electronic device & accessory,old,left,174,,,,,,,,
,,,,,,,,7,,2022-01-07_17h39.20.686,MemLear_ses-01_part-02_label-phase2,2020.1.3,MacIntel,60,right,0.8254,4,0.0935,0,54,54,6,1,stimuli/objects/wiicontroller.jpg,Electronic device & accessory,old,left,97,,,,,,,,
,,,,,,,,7,,2022-01-07_17h39.20.686,MemLear_ses-01_part-02_label-phase2,2020.1.3,MacIntel,60,right,0.8289,4,0.0723,0,55,55,78,1,stimuli/objects/videocamera01a.jpg,Electronic device & accessory,old,left,169,,,,,,,,
,,,,,,,,7,,2022-01-07_17h39.20.686,MemLear_ses-01_part-02_label-phase2,2020.1.3,MacIntel,60,right,0.6428,4,0.0298,0,56,56,55,1,stimuli/objects/bottlecap.jpg,Kitchen & utensil,old,left,146,,,,,,,,
,,,,,,,,7,,2022-01-07_17h39.20.686,MemLear_ses-01_part-02_label-phase2,2020.1.3,MacIntel,60,left,0.7754,3,0.5756,0,57,57,39,1,stimuli/objects/cookingpot.jpg,Kitchen & utensil,old,left,130,,,,,,,,
,,,,,,,,7,,2022-01-07_17h39.20.686,MemLear_ses-01_part-02_label-phase2,2020.1.3,MacIntel,60,right,1.0685,3,0.3286,0,58,58,87,1,stimuli/objects/painttray.jpg,Hand labour tool & accessory,old,left,178,,,,,,,,
,,,,,,,,7,,2022-01-07_17h39.20.686,MemLear_ses-01_part-02_label-phase2,2020.1.3,MacIntel,60,right,2.4462,4,0.3763,0,59,59,69,1,stimuli/objects/alarmsystem.jpg,Electronic device & accessory,old,left,160,,,,,,,,
,,,,,,,,7,,2022-01-07_17h39.20.686,MemLear_ses-01_part-02_label-phase2,2020.1.3,MacIntel,60,right,0.9929,4,0.0577,0,60,60,89,1,stimuli/objects/dvdcase01.jpg,Electronic device & accessory,new,right,180,,,,,,,,
,,,,,,,,7,,2022-01-07_17h39.20.686,MemLear_ses-01_part-02_label-phase2,2020.1.3,MacIntel,60,right,3.2659,3,0.2614,0,61,61,7,1,stimuli/objects/mitresaw.jpg,Hand labour tool & accessory,new,right,98,,,,,,,,
,,,,,,,,7,,2022-01-07_17h39.20.686,MemLear_ses-01_part-02_label-phase2,2020.1.3,MacIntel,60,right,0.698,3,0.5257,0,62,62,33,1,stimuli/objects/lamp04a.jpg,Electronic device & accessory,old,left,124,,,,,,,,
,,,,,,,,7,,2022-01-07_17h39.20.686,MemLear_ses-01_part-02_label-phase2,2020.1.3,MacIntel,60,right,1.0068,3,0.1276,0,63,63,65,1,stimuli/objects/bikepump01.jpg,Outdoor activity & sport item,old,left,156,,,,,,,,
,,,,,,,,7,,2022-01-07_17h39.20.686,MemLear_ses-01_part-02_label-phase2,2020.1.3,MacIntel,60,left,2.4452,2,0.5565,0,64,64,29,1,stimuli/objects/coffeepot03a.jpg,Kitchen & utensil,old,left,120,,,,,,,,
,,,,,,,,7,,2022-01-07_17h39.20.686,MemLear_ses-01_part-02_label-phase2,2020.1.3,MacIntel,60,left,1.1109,3,0.0238,0,65,65,44,1,stimuli/objects/ramekin01.jpg,Kitchen & utensil,old,left,135,,,,,,,,
,,,,,,,,7,,2022-01-07_17h39.20.686,MemLear_ses-01_part-02_label-phase2,2020.1.3,MacIntel,60,right,2.578,4,0.2769,0,66,66,34,1,stimuli/objects/fishingrod.jpg,Outdoor activity & sport item,new,right,125,,,,,,,,
,,,,,,,,7,,2022-01-07_17h39.20.686,MemLear_ses-01_part-02_label-phase2,2020.1.3,MacIntel,60,right,1.4103,4,0.1426,0,67,67,13,1,stimuli/objects/smokedetector02.jpg,Electronic device & accessory,new,right,104,,,,,,,,
,,,,,,,,7,,2022-01-07_17h39.20.686,MemLear_ses-01_part-02_label-phase2,2020.1.3,MacIntel,60,right,1.711,4,0.0406,0,68,68,61,1,stimuli/objects/battery02b.jpg,Electronic device & accessory,old,left,152,,,,,,,,
,,,,,,,,7,,2022-01-07_17h39.20.686,MemLear_ses-01_part-02_label-phase2,2020.1.3,MacIntel,60,right,2.1279,4,0.2728,0,69,69,70,1,stimuli/objects/hockeypuck.jpg,Outdoor activity & sport item,new,right,161,,,,,,,,
,,,,,,,,7,,2022-01-07_17h39.20.686,MemLear_ses-01_part-02_label-phase2,2020.1.3,MacIntel,60,left,3.5673,4,0.4112,0,70,70,15,1,stimuli/objects/airconditioner.jpg,Electronic device & accessory,new,right,106,,,,,,,,
,,,,,,,,7,,2022-01-07_17h39.20.686,MemLear_ses-01_part-02_label-phase2,2020.1.3,MacIntel,60,right,0.9775,4,0.0721,0,71,71,22,1,stimuli/objects/lawnmower.jpg,Hand labour tool & accessory,old,left,113,,,,,,,,
,,,,,,,,7,,2022-01-07_17h39.20.686,MemLear_ses-01_part-02_label-phase2,2020.1.3,MacIntel,60,right,0.8949,3,1.2128,0,72,72,86,1,stimuli/objects/corkscrew03a.jpg,Kitchen & utensil,new,right,177,,,,,,,,
,,,,,,,,7,,2022-01-07_17h39.20.686,MemLear_ses-01_part-02_label-phase2,2020.1.3,MacIntel,60,right,2.1971,3,0.6241,0,73,73,5,1,stimuli/objects/filmroll.jpg,Electronic device & accessory,old,left,96,,,,,,,,
,,,,,,,,7,,2022-01-07_17h39.20.686,MemLear_ses-01_part-02_label-phase2,2020.1.3,MacIntel,60,right,1.0819,3,0.1262,0,74,74,4,1,stimuli/objects/webcam.jpg,Electronic device & accessory,new,right,95,,,,,,,,
,,,,,,,,7,,2022-01-07_17h39.20.686,MemLear_ses-01_part-02_label-phase2,2020.1.3,MacIntel,60,right,0.8267,3,0.0927,0,75,75,37,1,stimuli/objects/desktopcomputer.jpg,Electronic device & accessory,old,left,128,,,,,,,,
,,,,,,,,7,,2022-01-07_17h39.20.686,MemLear_ses-01_part-02_label-phase2,2020.1.3,MacIntel,60,right,0.6912,4,5.0168,0,76,76,3,1,stimuli/objects/wafflemaker.jpg,Kitchen & utensil,new,right,94,,,,,,,,
,,,,,,,,7,,2022-01-07_17h39.20.686,MemLear_ses-01_part-02_label-phase2,2020.1.3,MacIntel,60,right,2.6625,3,0.2891,0,77,77,58,1,stimuli/objects/gps.jpg,Electronic device & accessory,old,left,149,,,,,,,,
,,,,,,,,7,,2022-01-07_17h39.20.686,MemLear_ses-01_part-02_label-phase2,2020.1.3,MacIntel,60,left,2.9937,1,0.1392,0,78,78,32,1,stimuli/objects/toaster01.jpg,Kitchen & utensil,new,right,123,,,,,,,,
,,,,,,,,7,,2022-01-07_17h39.20.686,MemLear_ses-01_part-02_label-phase2,2020.1.3,MacIntel,60,right,0.7957,3,0.2437,0,79,79,40,1,stimuli/objects/snowshoe.jpg,Outdoor activity & sport item,old,left,131,,,,,,,,
,,,,,,,,7,,2022-01-07_17h39.20.686,MemLear_ses-01_part-02_label-phase2,2020.1.3,MacIntel,60,right,0.9769,3,0.3396,0,80,80,72,1,stimuli/objects/golfbag.jpg,Outdoor activity & sport item,old,left,163,,,,,,,,
,,,,,,,,7,,2022-01-07_17h39.20.686,MemLear_ses-01_part-02_label-phase2,2020.1.3,MacIntel,60,right,0.6769,2,0.2819,0,81,81,75,1,stimuli/objects/saltshaker03a.jpg,Kitchen & utensil,old,left,166,,,,,,,,
,,,,,,,,7,,2022-01-07_17h39.20.686,MemLear_ses-01_part-02_label-phase2,2020.1.3,MacIntel,60,left,1.0115,3,0.007,0,82,82,20,1,stimuli/objects/pot01.jpg,Kitchen & utensil,old,left,111,,,,,,,,
,,,,,,,,7,,2022-01-07_17h39.20.686,MemLear_ses-01_part-02_label-phase2,2020.1.3,MacIntel,60,right,1.6104,4,0.7745,0,83,83,73,1,stimuli/objects/cashregister01.jpg,Electronic device & accessory,old,left,164,,,,,,,,
,,,,,,,,7,,2022-01-07_17h39.20.686,MemLear_ses-01_part-02_label-phase2,2020.1.3,MacIntel,60,right,1.0631,3,0.1095,0,84,84,0,1,stimuli/objects/solderingiron.jpg,Hand labour tool & accessory,new,right,91,,,,,,,,
,,,,,,,,7,,2022-01-07_17h39.20.686,MemLear_ses-01_part-02_label-phase2,2020.1.3,MacIntel,60,left,0.9621,4,0.0429,0,85,85,71,1,stimuli/objects/computerkeyboard02.jpg,Electronic device & accessory,old,left,162,,,,,,,,
,,,,,,,,7,,2022-01-07_17h39.20.686,MemLear_ses-01_part-02_label-phase2,2020.1.3,MacIntel,60,right,0.6269,3,0.473,0,86,86,66,1,stimuli/objects/swimgoggles.jpg,Outdoor activity & sport item,old,left,157,,,,,,,,
,,,,,,,,7,,2022-01-07_17h39.20.686,MemLear_ses-01_part-02_label-phase2,2020.1.3,MacIntel,60,right,0.6761,3,0.1426,0,87,87,10,1,stimuli/objects/chandelier.jpg,Electronic device & accessory,old,left,101,,,,,,,,
,,,,,,,,7,,2022-01-07_17h39.20.686,MemLear_ses-01_part-02_label-phase2,2020.1.3,MacIntel,60,right,0.6747,3,0.0931,0,88,88,31,1,stimuli/objects/cutleryset.jpg,Kitchen & utensil,new,right,122,,,,,,,,
,,,,,,,,7,,2022-01-07_17h39.20.686,MemLear_ses-01_part-02_label-phase2,2020.1.3,MacIntel,60,right,0.6651,3,0.1906,0,89,89,63,1,stimuli/objects/anchor.jpg,Outdoor activity & sport item,new,right,154,,,,,,,,
,,,,,,,,7,,2022-01-07_17h39.20.686,MemLear_ses-01_part-02_label-phase2,2020.1.3,MacIntel,60,,,,,,,,,,,,,,,space,2.6051,0,1,1,1,1,condition_files/ImagesforRecog4_2.csv
