"participant","Expra.Code","pract_resp.keys","pract_resp.corr","pract_resp.rt","myownaccuracyCORR","character","left_categ","centleft_categ","centright_categ","right_categ","trial_cond","corr_ans","corr_ans_num","type","img","task_response.keys","task_response.corr","task_response.rt","condition"
4,611976,1,1,1.3213,1,"stimuli/m_red.jpg","stimuli/Food.png","stimuli/Gamestoy & entertainment.png","stimuli/Vehicle.png","stimuli/Clothing.png",1,"Food",1,1,"stimuli/objects/chocolatecroissant.jpg",NA,NA,NA,NA
4,611976,2,0,1.2838,1,"stimuli/m_red.jpg","stimuli/Clothing.png","stimuli/Food.png","stimuli/Gamestoy & entertainment.png","stimuli/Vehicle.png",0,"Vehicle",4,0,"stimuli/objects/tricycle.jpg",NA,NA,NA,NA
4,611976,3,0,1.1891,1,"stimuli/m_blue.jpg","stimuli/Vehicle.png","stimuli/Clothing.png","stimuli/Gamestoy & entertainment.png","stimuli/Food.png",0,"Food",4,0,"stimuli/objects/cracker02.jpg",NA,NA,NA,NA
4,611976,4,1,1.6053,1,"stimuli/m_red.jpg","stimuli/Clothing.png","stimuli/Vehicle.png","stimuli/Gamestoy & entertainment.png","stimuli/Food.png",1,"Food",4,1,"stimuli/objects/hotdog.jpg",NA,NA,NA,NA
4,611976,3,1,2.3843,1,"stimuli/m_red.jpg","stimuli/Clothing.png","stimuli/Gamestoy & entertainment.png","stimuli/Food.png","stimuli/Vehicle.png",1,"Food",3,1,"stimuli/objects/kiwi03.jpg",NA,NA,NA,NA
4,611976,3,1,0.6901,1,"stimuli/m_red.jpg","stimuli/Vehicle.png","stimuli/Gamestoy & entertainment.png","stimuli/Food.png","stimuli/Clothing.png",1,"Food",3,1,"stimuli/objects/greenolive.jpg",NA,NA,NA,NA
4,611976,2,0,1.1008,0,"stimuli/m_blue.jpg","stimuli/Food.png","stimuli/Clothing.png","stimuli/Vehicle.png","stimuli/Gamestoy & entertainment.png",1,"Gamestoy & entertainment",4,1,"stimuli/objects/paperairplane.jpg",NA,NA,NA,NA
4,611976,1,0,2.1109,0,"stimuli/m_blue.jpg","stimuli/Vehicle.png","stimuli/Gamestoy & entertainment.png","stimuli/Food.png","stimuli/Clothing.png",1,"Gamestoy & entertainment",2,1,"stimuli/objects/toyanimal02.jpg",NA,NA,NA,NA
4,611976,4,1,0.9884,1,"stimuli/m_red.jpg","stimuli/Vehicle.png","stimuli/Clothing.png","stimuli/Gamestoy & entertainment.png","stimuli/Food.png",1,"Food",4,1,"stimuli/objects/casabamelon.jpg",NA,NA,NA,NA
4,611976,1,1,1.637,1,"stimuli/m_blue.jpg","stimuli/Gamestoy & entertainment.png","stimuli/Clothing.png","stimuli/Vehicle.png","stimuli/Food.png",1,"Gamestoy & entertainment",1,1,"stimuli/objects/paddleball.jpg",NA,NA,NA,NA
4,611976,1,1,0.8122,1,"stimuli/m_blue.jpg","stimuli/Gamestoy & entertainment.png","stimuli/Clothing.png","stimuli/Food.png","stimuli/Vehicle.png",1,"Gamestoy & entertainment",1,1,"stimuli/objects/rockinghorse.jpg",NA,NA,NA,NA
4,611976,2,1,1.1414,1,"stimuli/m_red.jpg","stimuli/Vehicle.png","stimuli/Food.png","stimuli/Clothing.png","stimuli/Gamestoy & entertainment.png",1,"Food",2,1,"stimuli/objects/arugula.jpg",NA,NA,NA,NA
4,611976,NA,NA,NA,NA,"stimuli/m_black.jpg","stimuli/Hand labour tool & accessory.png","stimuli/Outdoor activity & sport item.png","stimuli/Kitchen & utensil.png","stimuli/Electronic device & accessory.png",NA,"Outdoor activity & sport item",2,1,"stimuli/objects/gymnasticring.jpg",2,1,1.2584,1
4,611976,NA,NA,NA,NA,"stimuli/m_black.jpg","stimuli/Outdoor activity & sport item.png","stimuli/Kitchen & utensil.png","stimuli/Electronic device & accessory.png","stimuli/Hand labour tool & accessory.png",NA,"Outdoor activity & sport item",1,1,"stimuli/objects/exercisebench.jpg",1,1,1.0412,1
4,611976,NA,NA,NA,NA,"stimuli/m_orange.jpg","stimuli/Outdoor activity & sport item.png","stimuli/Kitchen & utensil.png","stimuli/Hand labour tool & accessory.png","stimuli/Electronic device & accessory.png",NA,"Hand labour tool & accessory",3,1,"stimuli/objects/jumpercables.jpg",3,1,1.374,0
4,611976,NA,NA,NA,NA,"stimuli/m_orange.jpg","stimuli/Electronic device & accessory.png","stimuli/Hand labour tool & accessory.png","stimuli/Kitchen & utensil.png","stimuli/Outdoor activity & sport item.png",NA,"Hand labour tool & accessory",2,1,"stimuli/objects/pipewrench.jpg",1,0,1.9351,0
4,611976,NA,NA,NA,NA,"stimuli/m_orange.jpg","stimuli/Kitchen & utensil.png","stimuli/Hand labour tool & accessory.png","stimuli/Outdoor activity & sport item.png","stimuli/Electronic device & accessory.png",NA,"Hand labour tool & accessory",2,1,"stimuli/objects/tape02a.jpg",NA,0,NA,0
4,611976,NA,NA,NA,NA,"stimuli/m_black.jpg","stimuli/Kitchen & utensil.png","stimuli/Hand labour tool & accessory.png","stimuli/Outdoor activity & sport item.png","stimuli/Electronic device & accessory.png",NA,"Outdoor activity & sport item",3,1,"stimuli/objects/swing.jpg",3,1,2.2044,1
4,611976,NA,NA,NA,NA,"stimuli/m_black.jpg","stimuli/Hand labour tool & accessory.png","stimuli/Electronic device & accessory.png","stimuli/Kitchen & utensil.png","stimuli/Outdoor activity & sport item.png",NA,"Kitchen & utensil",3,0,"stimuli/objects/tray.jpg",4,0,2.4749,1
4,611976,NA,NA,NA,NA,"stimuli/m_orange.jpg","stimuli/Hand labour tool & accessory.png","stimuli/Outdoor activity & sport item.png","stimuli/Electronic device & accessory.png","stimuli/Kitchen & utensil.png",NA,"Hand labour tool & accessory",1,1,"stimuli/objects/wirestripper.jpg",1,1,0.971,0
4,611976,NA,NA,NA,NA,"stimuli/m_orange.jpg","stimuli/Outdoor activity & sport item.png","stimuli/Electronic device & accessory.png","stimuli/Kitchen & utensil.png","stimuli/Hand labour tool & accessory.png",NA,"Hand labour tool & accessory",4,1,"stimuli/objects/carjack.jpg",4,1,2.3889,0
4,611976,NA,NA,NA,NA,"stimuli/m_orange.jpg","stimuli/Electronic device & accessory.png","stimuli/Outdoor activity & sport item.png","stimuli/Hand labour tool & accessory.png","stimuli/Kitchen & utensil.png",NA,"Hand labour tool & accessory",3,1,"stimuli/objects/hedgeshears.jpg",3,1,2.8719,0
4,611976,NA,NA,NA,NA,"stimuli/m_orange.jpg","stimuli/Kitchen & utensil.png","stimuli/Outdoor activity & sport item.png","stimuli/Electronic device & accessory.png","stimuli/Hand labour tool & accessory.png",NA,"Hand labour tool & accessory",4,1,"stimuli/objects/jumpingjack.jpg",4,1,3.7506,0
4,611976,NA,NA,NA,NA,"stimuli/m_black.jpg","stimuli/Electronic device & accessory.png","stimuli/Kitchen & utensil.png","stimuli/Hand labour tool & accessory.png","stimuli/Outdoor activity & sport item.png",NA,"Outdoor activity & sport item",4,1,"stimuli/objects/beachumbrella01.jpg",4,1,2.5397,1
4,611976,NA,NA,NA,NA,"stimuli/m_orange.jpg","stimuli/Kitchen & utensil.png","stimuli/Outdoor activity & sport item.png","stimuli/Electronic device & accessory.png","stimuli/Hand labour tool & accessory.png",NA,"Hand labour tool & accessory",4,1,"stimuli/objects/metalbrush.jpg",4,1,1.9861,0
4,611976,NA,NA,NA,NA,"stimuli/m_orange.jpg","stimuli/Outdoor activity & sport item.png","stimuli/Electronic device & accessory.png","stimuli/Kitchen & utensil.png","stimuli/Hand labour tool & accessory.png",NA,"Hand labour tool & accessory",4,1,"stimuli/objects/gavel.jpg",4,1,0.9182,0
4,611976,NA,NA,NA,NA,"stimuli/m_black.jpg","stimuli/Outdoor activity & sport item.png","stimuli/Electronic device & accessory.png","stimuli/Hand labour tool & accessory.png","stimuli/Kitchen & utensil.png",NA,"Hand labour tool & accessory",3,0,"stimuli/objects/shopvac.jpg",1,0,1.2014,1
4,611976,NA,NA,NA,NA,"stimuli/m_orange.jpg","stimuli/Kitchen & utensil.png","stimuli/Outdoor activity & sport item.png","stimuli/Hand labour tool & accessory.png","stimuli/Electronic device & accessory.png",NA,"Hand labour tool & accessory",3,1,"stimuli/objects/file.jpg",3,1,1.4993,0
4,611976,NA,NA,NA,NA,"stimuli/m_orange.jpg","stimuli/Kitchen & utensil.png","stimuli/Electronic device & accessory.png","stimuli/Outdoor activity & sport item.png","stimuli/Hand labour tool & accessory.png",NA,"Hand labour tool & accessory",4,1,"stimuli/objects/gardenshears01a.jpg",4,1,3.2869,0
4,611976,NA,NA,NA,NA,"stimuli/m_black.jpg","stimuli/Kitchen & utensil.png","stimuli/Hand labour tool & accessory.png","stimuli/Electronic device & accessory.png","stimuli/Outdoor activity & sport item.png",NA,"Electronic device & accessory",3,0,"stimuli/objects/avcable.jpg",4,0,1.798,1
4,611976,NA,NA,NA,NA,"stimuli/m_orange.jpg","stimuli/Kitchen & utensil.png","stimuli/Electronic device & accessory.png","stimuli/Hand labour tool & accessory.png","stimuli/Outdoor activity & sport item.png",NA,"Hand labour tool & accessory",3,1,"stimuli/objects/bowrake.jpg",3,1,1.2675,0
4,611976,NA,NA,NA,NA,"stimuli/m_black.jpg","stimuli/Kitchen & utensil.png","stimuli/Hand labour tool & accessory.png","stimuli/Outdoor activity & sport item.png","stimuli/Electronic device & accessory.png",NA,"Outdoor activity & sport item",3,1,"stimuli/objects/bikepump01.jpg",3,1,2.7528,1
4,611976,NA,NA,NA,NA,"stimuli/m_black.jpg","stimuli/Outdoor activity & sport item.png","stimuli/Hand labour tool & accessory.png","stimuli/Kitchen & utensil.png","stimuli/Electronic device & accessory.png",NA,"Outdoor activity & sport item",1,1,"stimuli/objects/golfball.jpg",1,1,0.9577,1
4,611976,NA,NA,NA,NA,"stimuli/m_black.jpg","stimuli/Kitchen & utensil.png","stimuli/Outdoor activity & sport item.png","stimuli/Electronic device & accessory.png","stimuli/Hand labour tool & accessory.png",NA,"Hand labour tool & accessory",4,0,"stimuli/objects/caulking.jpg",2,0,0.7968,1
4,611976,NA,NA,NA,NA,"stimuli/m_orange.jpg","stimuli/Electronic device & accessory.png","stimuli/Kitchen & utensil.png","stimuli/Outdoor activity & sport item.png","stimuli/Hand labour tool & accessory.png",NA,"Hand labour tool & accessory",4,1,"stimuli/objects/staplegun.jpg",4,1,1.2542,0
4,611976,NA,NA,NA,NA,"stimuli/m_black.jpg","stimuli/Electronic device & accessory.png","stimuli/Hand labour tool & accessory.png","stimuli/Kitchen & utensil.png","stimuli/Outdoor activity & sport item.png",NA,"Outdoor activity & sport item",4,1,"stimuli/objects/tennisball01b.jpg",4,1,1.6353,1
4,611976,NA,NA,NA,NA,"stimuli/m_black.jpg","stimuli/Kitchen & utensil.png","stimuli/Electronic device & accessory.png","stimuli/Outdoor activity & sport item.png","stimuli/Hand labour tool & accessory.png",NA,"Outdoor activity & sport item",3,1,"stimuli/objects/umbrella04.jpg",3,1,2.0847,1
4,611976,NA,NA,NA,NA,"stimuli/m_orange.jpg","stimuli/Hand labour tool & accessory.png","stimuli/Electronic device & accessory.png","stimuli/Outdoor activity & sport item.png","stimuli/Kitchen & utensil.png",NA,"Hand labour tool & accessory",1,1,"stimuli/objects/flashlight02b.jpg",1,1,1.584,0
4,611976,NA,NA,NA,NA,"stimuli/m_orange.jpg","stimuli/Kitchen & utensil.png","stimuli/Hand labour tool & accessory.png","stimuli/Outdoor activity & sport item.png","stimuli/Electronic device & accessory.png",NA,"Hand labour tool & accessory",2,1,"stimuli/objects/lock03a.jpg",3,0,1.7389,0
4,611976,NA,NA,NA,NA,"stimuli/m_orange.jpg","stimuli/Electronic device & accessory.png","stimuli/Outdoor activity & sport item.png","stimuli/Kitchen & utensil.png","stimuli/Hand labour tool & accessory.png",NA,"Hand labour tool & accessory",4,1,"stimuli/objects/sledgehammer.jpg",4,1,1.7772,0
4,611976,NA,NA,NA,NA,"stimuli/m_black.jpg","stimuli/Electronic device & accessory.png","stimuli/Outdoor activity & sport item.png","stimuli/Kitchen & utensil.png","stimuli/Hand labour tool & accessory.png",NA,"Outdoor activity & sport item",2,1,"stimuli/objects/binoculars01b.jpg",2,1,2.1789,1
4,611976,NA,NA,NA,NA,"stimuli/m_black.jpg","stimuli/Outdoor activity & sport item.png","stimuli/Kitchen & utensil.png","stimuli/Hand labour tool & accessory.png","stimuli/Electronic device & accessory.png",NA,"Outdoor activity & sport item",1,1,"stimuli/objects/weight01.jpg",1,1,1.2266,1
4,611976,NA,NA,NA,NA,"stimuli/m_black.jpg","stimuli/Kitchen & utensil.png","stimuli/Hand labour tool & accessory.png","stimuli/Outdoor activity & sport item.png","stimuli/Electronic device & accessory.png",NA,"Outdoor activity & sport item",3,1,"stimuli/objects/bikelock.jpg",3,1,2.3791,1
4,611976,NA,NA,NA,NA,"stimuli/m_orange.jpg","stimuli/Outdoor activity & sport item.png","stimuli/Kitchen & utensil.png","stimuli/Hand labour tool & accessory.png","stimuli/Electronic device & accessory.png",NA,"Outdoor activity & sport item",1,0,"stimuli/objects/frisbee.jpg",3,0,2.3917,0
4,611976,NA,NA,NA,NA,"stimuli/m_black.jpg","stimuli/Electronic device & accessory.png","stimuli/Hand labour tool & accessory.png","stimuli/Kitchen & utensil.png","stimuli/Outdoor activity & sport item.png",NA,"Electronic device & accessory",1,0,"stimuli/objects/monitor.jpg",4,0,2.3261,1
4,611976,NA,NA,NA,NA,"stimuli/m_orange.jpg","stimuli/Hand labour tool & accessory.png","stimuli/Kitchen & utensil.png","stimuli/Outdoor activity & sport item.png","stimuli/Electronic device & accessory.png",NA,"Hand labour tool & accessory",1,1,"stimuli/objects/loppingshears.jpg",NA,0,NA,0
4,611976,NA,NA,NA,NA,"stimuli/m_black.jpg","stimuli/Outdoor activity & sport item.png","stimuli/Kitchen & utensil.png","stimuli/Hand labour tool & accessory.png","stimuli/Electronic device & accessory.png",NA,"Outdoor activity & sport item",1,1,"stimuli/objects/hockeygoalieglove.jpg",1,1,1.34,1
4,611976,NA,NA,NA,NA,"stimuli/m_black.jpg","stimuli/Hand labour tool & accessory.png","stimuli/Electronic device & accessory.png","stimuli/Outdoor activity & sport item.png","stimuli/Kitchen & utensil.png",NA,"Outdoor activity & sport item",3,1,"stimuli/objects/sportbag.jpg",3,1,3.118,1
4,611976,NA,NA,NA,NA,"stimuli/m_orange.jpg","stimuli/Hand labour tool & accessory.png","stimuli/Electronic device & accessory.png","stimuli/Kitchen & utensil.png","stimuli/Outdoor activity & sport item.png",NA,"Outdoor activity & sport item",4,0,"stimuli/objects/anchor.jpg",1,0,1.2247,0
4,611976,NA,NA,NA,NA,"stimuli/m_orange.jpg","stimuli/Electronic device & accessory.png","stimuli/Kitchen & utensil.png","stimuli/Hand labour tool & accessory.png","stimuli/Outdoor activity & sport item.png",NA,"Hand labour tool & accessory",3,1,"stimuli/objects/solderingwire.jpg",3,1,1.5748,0
4,611976,NA,NA,NA,NA,"stimuli/m_black.jpg","stimuli/Outdoor activity & sport item.png","stimuli/Kitchen & utensil.png","stimuli/Hand labour tool & accessory.png","stimuli/Electronic device & accessory.png",NA,"Kitchen & utensil",2,0,"stimuli/objects/blender.jpg",1,0,1.5218,1
4,611976,NA,NA,NA,NA,"stimuli/m_orange.jpg","stimuli/Kitchen & utensil.png","stimuli/Electronic device & accessory.png","stimuli/Hand labour tool & accessory.png","stimuli/Outdoor activity & sport item.png",NA,"Hand labour tool & accessory",3,1,"stimuli/objects/gluetube.jpg",3,1,2.6941,0
4,611976,NA,NA,NA,NA,"stimuli/m_black.jpg","stimuli/Electronic device & accessory.png","stimuli/Hand labour tool & accessory.png","stimuli/Kitchen & utensil.png","stimuli/Outdoor activity & sport item.png",NA,"Electronic device & accessory",1,0,"stimuli/objects/alarmsystem.jpg",4,0,2.2878,1
4,611976,NA,NA,NA,NA,"stimuli/m_black.jpg","stimuli/Electronic device & accessory.png","stimuli/Outdoor activity & sport item.png","stimuli/Hand labour tool & accessory.png","stimuli/Kitchen & utensil.png",NA,"Outdoor activity & sport item",2,1,"stimuli/objects/punchingball.jpg",2,1,3.106,1
4,611976,NA,NA,NA,NA,"stimuli/m_orange.jpg","stimuli/Electronic device & accessory.png","stimuli/Outdoor activity & sport item.png","stimuli/Hand labour tool & accessory.png","stimuli/Kitchen & utensil.png",NA,"Hand labour tool & accessory",3,1,"stimuli/objects/tablesaw.jpg",3,1,1.5193,0
4,611976,NA,NA,NA,NA,"stimuli/m_orange.jpg","stimuli/Outdoor activity & sport item.png","stimuli/Electronic device & accessory.png","stimuli/Hand labour tool & accessory.png","stimuli/Kitchen & utensil.png",NA,"Kitchen & utensil",4,0,"stimuli/objects/bowl02a.jpg",2,0,1.2486,0
4,611976,NA,NA,NA,NA,"stimuli/m_orange.jpg","stimuli/Electronic device & accessory.png","stimuli/Hand labour tool & accessory.png","stimuli/Outdoor activity & sport item.png","stimuli/Kitchen & utensil.png",NA,"Outdoor activity & sport item",3,0,"stimuli/objects/boogieboard.jpg",4,0,2.4075,0
4,611976,NA,NA,NA,NA,"stimuli/m_black.jpg","stimuli/Electronic device & accessory.png","stimuli/Hand labour tool & accessory.png","stimuli/Outdoor activity & sport item.png","stimuli/Kitchen & utensil.png",NA,"Outdoor activity & sport item",3,1,"stimuli/objects/exercisemachine.jpg",3,1,2.1379,1
4,611976,NA,NA,NA,NA,"stimuli/m_black.jpg","stimuli/Hand labour tool & accessory.png","stimuli/Outdoor activity & sport item.png","stimuli/Electronic device & accessory.png","stimuli/Kitchen & utensil.png",NA,"Outdoor activity & sport item",2,1,"stimuli/objects/charcoalbarbecue.jpg",2,1,1.4958,1
4,611976,NA,NA,NA,NA,"stimuli/m_orange.jpg","stimuli/Hand labour tool & accessory.png","stimuli/Outdoor activity & sport item.png","stimuli/Kitchen & utensil.png","stimuli/Electronic device & accessory.png",NA,"Hand labour tool & accessory",1,1,"stimuli/objects/pliers02b.jpg",1,1,0.7865,0
4,611976,NA,NA,NA,NA,"stimuli/m_black.jpg","stimuli/Kitchen & utensil.png","stimuli/Hand labour tool & accessory.png","stimuli/Electronic device & accessory.png","stimuli/Outdoor activity & sport item.png",NA,"Hand labour tool & accessory",2,0,"stimuli/objects/painttray.jpg",4,0,1.4899,1
4,611976,NA,NA,NA,NA,"stimuli/m_orange.jpg","stimuli/Hand labour tool & accessory.png","stimuli/Electronic device & accessory.png","stimuli/Kitchen & utensil.png","stimuli/Outdoor activity & sport item.png",NA,"Hand labour tool & accessory",1,1,"stimuli/objects/measuringtape01.jpg",1,1,0.6107,0
4,611976,NA,NA,NA,NA,"stimuli/m_orange.jpg","stimuli/Hand labour tool & accessory.png","stimuli/Kitchen & utensil.png","stimuli/Outdoor activity & sport item.png","stimuli/Electronic device & accessory.png",NA,"Hand labour tool & accessory",1,1,"stimuli/objects/hammer01.jpg",1,1,0.5344,0
4,611976,NA,NA,NA,NA,"stimuli/m_orange.jpg","stimuli/Outdoor activity & sport item.png","stimuli/Hand labour tool & accessory.png","stimuli/Electronic device & accessory.png","stimuli/Kitchen & utensil.png",NA,"Outdoor activity & sport item",1,0,"stimuli/objects/bikehelmet.jpg",2,0,1.0734,0
4,611976,NA,NA,NA,NA,"stimuli/m_orange.jpg","stimuli/Kitchen & utensil.png","stimuli/Hand labour tool & accessory.png","stimuli/Electronic device & accessory.png","stimuli/Outdoor activity & sport item.png",NA,"Electronic device & accessory",3,0,"stimuli/objects/carlighter02.jpg",2,0,0.9617,0
4,611976,NA,NA,NA,NA,"stimuli/m_black.jpg","stimuli/Kitchen & utensil.png","stimuli/Electronic device & accessory.png","stimuli/Hand labour tool & accessory.png","stimuli/Outdoor activity & sport item.png",NA,"Outdoor activity & sport item",4,1,"stimuli/objects/basketballhoop01.jpg",4,1,1.1458,1
4,611976,NA,NA,NA,NA,"stimuli/m_black.jpg","stimuli/Outdoor activity & sport item.png","stimuli/Hand labour tool & accessory.png","stimuli/Kitchen & utensil.png","stimuli/Electronic device & accessory.png",NA,"Kitchen & utensil",3,0,"stimuli/objects/fonduefork01.jpg",1,0,1.44,1
4,611976,NA,NA,NA,NA,"stimuli/m_black.jpg","stimuli/Kitchen & utensil.png","stimuli/Electronic device & accessory.png","stimuli/Outdoor activity & sport item.png","stimuli/Hand labour tool & accessory.png",NA,"Outdoor activity & sport item",3,1,"stimuli/objects/snowboard.jpg",3,1,2.1081,1
4,611976,NA,NA,NA,NA,"stimuli/m_black.jpg","stimuli/Hand labour tool & accessory.png","stimuli/Electronic device & accessory.png","stimuli/Kitchen & utensil.png","stimuli/Outdoor activity & sport item.png",NA,"Hand labour tool & accessory",1,0,"stimuli/objects/pickaxe02.jpg",4,0,1.4357,1
4,611976,NA,NA,NA,NA,"stimuli/m_black.jpg","stimuli/Electronic device & accessory.png","stimuli/Outdoor activity & sport item.png","stimuli/Kitchen & utensil.png","stimuli/Hand labour tool & accessory.png",NA,"Electronic device & accessory",1,0,"stimuli/objects/cellphone.jpg",2,0,1.2291,1
4,611976,NA,NA,NA,NA,"stimuli/m_black.jpg","stimuli/Hand labour tool & accessory.png","stimuli/Outdoor activity & sport item.png","stimuli/Electronic device & accessory.png","stimuli/Kitchen & utensil.png",NA,"Outdoor activity & sport item",2,1,"stimuli/objects/bowlingball.jpg",2,1,1.3203,1
4,611976,NA,NA,NA,NA,"stimuli/m_black.jpg","stimuli/Outdoor activity & sport item.png","stimuli/Hand labour tool & accessory.png","stimuli/Electronic device & accessory.png","stimuli/Kitchen & utensil.png",NA,"Outdoor activity & sport item",1,1,"stimuli/objects/podium.jpg",1,1,1.029,1
4,611976,NA,NA,NA,NA,"stimuli/m_orange.jpg","stimuli/Outdoor activity & sport item.png","stimuli/Electronic device & accessory.png","stimuli/Hand labour tool & accessory.png","stimuli/Kitchen & utensil.png",NA,"Hand labour tool & accessory",3,1,"stimuli/objects/cheeseknife01.jpg",3,1,1.1101,0
4,611976,NA,NA,NA,NA,"stimuli/m_black.jpg","stimuli/Electronic device & accessory.png","stimuli/Kitchen & utensil.png","stimuli/Hand labour tool & accessory.png","stimuli/Outdoor activity & sport item.png",NA,"Outdoor activity & sport item",4,1,"stimuli/objects/magneticcompass.jpg",4,1,1.7236,1
4,611976,NA,NA,NA,NA,"stimuli/m_black.jpg","stimuli/Electronic device & accessory.png","stimuli/Hand labour tool & accessory.png","stimuli/Outdoor activity & sport item.png","stimuli/Kitchen & utensil.png",NA,"Outdoor activity & sport item",3,1,"stimuli/objects/bikewheel.jpg",3,1,1.2905,1
4,611976,NA,NA,NA,NA,"stimuli/m_black.jpg","stimuli/Kitchen & utensil.png","stimuli/Outdoor activity & sport item.png","stimuli/Hand labour tool & accessory.png","stimuli/Electronic device & accessory.png",NA,"Outdoor activity & sport item",2,1,"stimuli/objects/reflector.jpg",2,1,1.8615,1
4,611976,NA,NA,NA,NA,"stimuli/m_black.jpg","stimuli/Hand labour tool & accessory.png","stimuli/Outdoor activity & sport item.png","stimuli/Kitchen & utensil.png","stimuli/Electronic device & accessory.png",NA,"Electronic device & accessory",4,0,"stimuli/objects/scanner.jpg",2,0,1.7122,1
4,611976,NA,NA,NA,NA,"stimuli/m_black.jpg","stimuli/Kitchen & utensil.png","stimuli/Outdoor activity & sport item.png","stimuli/Electronic device & accessory.png","stimuli/Hand labour tool & accessory.png",NA,"Outdoor activity & sport item",2,1,"stimuli/objects/swimgoggles.jpg",2,1,0.987,1
4,611976,NA,NA,NA,NA,"stimuli/m_black.jpg","stimuli/Hand labour tool & accessory.png","stimuli/Kitchen & utensil.png","stimuli/Outdoor activity & sport item.png","stimuli/Electronic device & accessory.png",NA,"Outdoor activity & sport item",3,1,"stimuli/objects/tennisracket.jpg",3,1,1.5077,1
4,611976,NA,NA,NA,NA,"stimuli/m_black.jpg","stimuli/Outdoor activity & sport item.png","stimuli/Electronic device & accessory.png","stimuli/Kitchen & utensil.png","stimuli/Hand labour tool & accessory.png",NA,"Outdoor activity & sport item",1,1,"stimuli/objects/toyhockeystick01.jpg",1,1,1.2186,1
4,611976,NA,NA,NA,NA,"stimuli/m_orange.jpg","stimuli/Hand labour tool & accessory.png","stimuli/Electronic device & accessory.png","stimuli/Outdoor activity & sport item.png","stimuli/Kitchen & utensil.png",NA,"Kitchen & utensil",4,0,"stimuli/objects/styrofoamcup.jpg",1,0,1.3479,0
4,611976,NA,NA,NA,NA,"stimuli/m_black.jpg","stimuli/Electronic device & accessory.png","stimuli/Kitchen & utensil.png","stimuli/Outdoor activity & sport item.png","stimuli/Hand labour tool & accessory.png",NA,"Outdoor activity & sport item",3,1,"stimuli/objects/volleyball.jpg",3,1,1.6182,1
4,611976,NA,NA,NA,NA,"stimuli/m_black.jpg","stimuli/Electronic device & accessory.png","stimuli/Hand labour tool & accessory.png","stimuli/Outdoor activity & sport item.png","stimuli/Kitchen & utensil.png",NA,"Kitchen & utensil",4,0,"stimuli/objects/oven.jpg",3,0,1.1319,1
4,611976,NA,NA,NA,NA,"stimuli/m_orange.jpg","stimuli/Outdoor activity & sport item.png","stimuli/Hand labour tool & accessory.png","stimuli/Kitchen & utensil.png","stimuli/Electronic device & accessory.png",NA,"Outdoor activity & sport item",1,0,"stimuli/objects/snowshoe.jpg",2,0,0.6587,0
4,611976,NA,NA,NA,NA,"stimuli/m_black.jpg","stimuli/Outdoor activity & sport item.png","stimuli/Electronic device & accessory.png","stimuli/Hand labour tool & accessory.png","stimuli/Kitchen & utensil.png",NA,"Outdoor activity & sport item",1,1,"stimuli/objects/skipole.jpg",1,1,1.2042,1
4,611976,NA,NA,NA,NA,"stimuli/m_orange.jpg","stimuli/Electronic device & accessory.png","stimuli/Kitchen & utensil.png","stimuli/Hand labour tool & accessory.png","stimuli/Outdoor activity & sport item.png",NA,"Hand labour tool & accessory",3,1,"stimuli/objects/puttyknife.jpg",3,1,1.013,0
4,611976,NA,NA,NA,NA,"stimuli/m_orange.jpg","stimuli/Outdoor activity & sport item.png","stimuli/Kitchen & utensil.png","stimuli/Hand labour tool & accessory.png","stimuli/Electronic device & accessory.png",NA,"Hand labour tool & accessory",3,1,"stimuli/objects/bungeecord02.jpg",3,1,1.6738,0
4,611976,NA,NA,NA,NA,"stimuli/m_orange.jpg","stimuli/Electronic device & accessory.png","stimuli/Kitchen & utensil.png","stimuli/Hand labour tool & accessory.png","stimuli/Outdoor activity & sport item.png",NA,"Hand labour tool & accessory",3,1,"stimuli/objects/jackhammer.jpg",3,1,0.6617,0
4,611976,NA,NA,NA,NA,"stimuli/m_black.jpg","stimuli/Kitchen & utensil.png","stimuli/Outdoor activity & sport item.png","stimuli/Hand labour tool & accessory.png","stimuli/Electronic device & accessory.png",NA,"Outdoor activity & sport item",2,1,"stimuli/objects/kneepad01c.jpg",2,1,1.6568,1
4,611976,NA,NA,NA,NA,"stimuli/m_black.jpg","stimuli/Hand labour tool & accessory.png","stimuli/Kitchen & utensil.png","stimuli/Outdoor activity & sport item.png","stimuli/Electronic device & accessory.png",NA,"Outdoor activity & sport item",3,1,"stimuli/objects/golfbag.jpg",3,1,0.6341,1
4,611976,NA,NA,NA,NA,"stimuli/m_black.jpg","stimuli/Outdoor activity & sport item.png","stimuli/Electronic device & accessory.png","stimuli/Hand labour tool & accessory.png","stimuli/Kitchen & utensil.png",NA,"Outdoor activity & sport item",1,1,"stimuli/objects/birdie.jpg",1,1,1.1943,1
4,611976,NA,NA,NA,NA,"stimuli/m_orange.jpg","stimuli/Hand labour tool & accessory.png","stimuli/Outdoor activity & sport item.png","stimuli/Kitchen & utensil.png","stimuli/Electronic device & accessory.png",NA,"Electronic device & accessory",4,0,"stimuli/objects/chandelier.jpg",1,0,1.2606,0
4,611976,NA,NA,NA,NA,"stimuli/m_orange.jpg","stimuli/Hand labour tool & accessory.png","stimuli/Outdoor activity & sport item.png","stimuli/Electronic device & accessory.png","stimuli/Kitchen & utensil.png",NA,"Hand labour tool & accessory",1,1,"stimuli/objects/drillbit03a.jpg",1,1,0.8098,0
4,611976,NA,NA,NA,NA,"stimuli/m_black.jpg","stimuli/Hand labour tool & accessory.png","stimuli/Electronic device & accessory.png","stimuli/Outdoor activity & sport item.png","stimuli/Kitchen & utensil.png",NA,"Hand labour tool & accessory",1,0,"stimuli/objects/solderingiron.jpg",3,0,1.0426,1
4,611976,NA,NA,NA,NA,"stimuli/m_black.jpg","stimuli/Hand labour tool & accessory.png","stimuli/Electronic device & accessory.png","stimuli/Kitchen & utensil.png","stimuli/Outdoor activity & sport item.png",NA,"Outdoor activity & sport item",4,1,"stimuli/objects/lifesaver.jpg",4,1,1.4906,1
4,611976,NA,NA,NA,NA,"stimuli/m_black.jpg","stimuli/Hand labour tool & accessory.png","stimuli/Kitchen & utensil.png","stimuli/Electronic device & accessory.png","stimuli/Outdoor activity & sport item.png",NA,"Outdoor activity & sport item",4,1,"stimuli/objects/propanetank01.jpg",4,1,0.689,1
4,611976,NA,NA,NA,NA,"stimuli/m_orange.jpg","stimuli/Hand labour tool & accessory.png","stimuli/Kitchen & utensil.png","stimuli/Outdoor activity & sport item.png","stimuli/Electronic device & accessory.png",NA,"Hand labour tool & accessory",1,1,"stimuli/objects/cuttingpliers02.jpg",1,1,0.6334,0
4,611976,NA,NA,NA,NA,"stimuli/m_black.jpg","stimuli/Kitchen & utensil.png","stimuli/Outdoor activity & sport item.png","stimuli/Electronic device & accessory.png","stimuli/Hand labour tool & accessory.png",NA,"Outdoor activity & sport item",2,1,"stimuli/objects/skigoggles01.jpg",2,1,1.6725,1
4,611976,NA,NA,NA,NA,"stimuli/m_orange.jpg","stimuli/Hand labour tool & accessory.png","stimuli/Kitchen & utensil.png","stimuli/Electronic device & accessory.png","stimuli/Outdoor activity & sport item.png",NA,"Electronic device & accessory",3,0,"stimuli/objects/securitycamera.jpg",4,0,1.5208,0
4,611976,NA,NA,NA,NA,"stimuli/m_orange.jpg","stimuli/Electronic device & accessory.png","stimuli/Hand labour tool & accessory.png","stimuli/Outdoor activity & sport item.png","stimuli/Kitchen & utensil.png",NA,"Hand labour tool & accessory",2,1,"stimuli/objects/pylon01.jpg",2,1,0.9054,0
4,611976,NA,NA,NA,NA,"stimuli/m_orange.jpg","stimuli/Hand labour tool & accessory.png","stimuli/Electronic device & accessory.png","stimuli/Kitchen & utensil.png","stimuli/Outdoor activity & sport item.png",NA,"Kitchen & utensil",3,0,"stimuli/objects/pot01.jpg",1,0,0.8001,0
4,611976,NA,NA,NA,NA,"stimuli/m_black.jpg","stimuli/Electronic device & accessory.png","stimuli/Kitchen & utensil.png","stimuli/Hand labour tool & accessory.png","stimuli/Outdoor activity & sport item.png",NA,"Outdoor activity & sport item",4,1,"stimuli/objects/surfboard.jpg",4,1,0.8618,1
4,611976,NA,NA,NA,NA,"stimuli/m_black.jpg","stimuli/Electronic device & accessory.png","stimuli/Outdoor activity & sport item.png","stimuli/Hand labour tool & accessory.png","stimuli/Kitchen & utensil.png",NA,"Outdoor activity & sport item",2,1,"stimuli/objects/cooler01.jpg",2,1,1.3633,1
4,611976,NA,NA,NA,NA,"stimuli/m_orange.jpg","stimuli/Outdoor activity & sport item.png","stimuli/Hand labour tool & accessory.png","stimuli/Kitchen & utensil.png","stimuli/Electronic device & accessory.png",NA,"Hand labour tool & accessory",2,1,"stimuli/objects/adjustablewrench01b.jpg",2,1,0.8629,0
4,611976,NA,NA,NA,NA,"stimuli/m_orange.jpg","stimuli/Outdoor activity & sport item.png","stimuli/Kitchen & utensil.png","stimuli/Electronic device & accessory.png","stimuli/Hand labour tool & accessory.png",NA,"Hand labour tool & accessory",4,1,"stimuli/objects/cclamp.jpg",4,1,1.373,0
4,611976,NA,NA,NA,NA,"stimuli/m_orange.jpg","stimuli/Electronic device & accessory.png","stimuli/Hand labour tool & accessory.png","stimuli/Kitchen & utensil.png","stimuli/Outdoor activity & sport item.png",NA,"Electronic device & accessory",1,0,"stimuli/objects/videocamera01a.jpg",2,0,1.561,0
4,611976,NA,NA,NA,NA,"stimuli/m_orange.jpg","stimuli/Electronic device & accessory.png","stimuli/Outdoor activity & sport item.png","stimuli/Kitchen & utensil.png","stimuli/Hand labour tool & accessory.png",NA,"Electronic device & accessory",1,0,"stimuli/objects/walkman.jpg",4,0,2.0274,0
4,611976,NA,NA,NA,NA,"stimuli/m_orange.jpg","stimuli/Kitchen & utensil.png","stimuli/Electronic device & accessory.png","stimuli/Outdoor activity & sport item.png","stimuli/Hand labour tool & accessory.png",NA,"Hand labour tool & accessory",4,1,"stimuli/objects/wheel01.jpg",2,0,1.1912,0
4,611976,NA,NA,NA,NA,"stimuli/m_black.jpg","stimuli/Outdoor activity & sport item.png","stimuli/Hand labour tool & accessory.png","stimuli/Electronic device & accessory.png","stimuli/Kitchen & utensil.png",NA,"Kitchen & utensil",4,0,"stimuli/objects/cleaver01.jpg",1,0,0.9914,1
4,611976,NA,NA,NA,NA,"stimuli/m_orange.jpg","stimuli/Electronic device & accessory.png","stimuli/Hand labour tool & accessory.png","stimuli/Kitchen & utensil.png","stimuli/Outdoor activity & sport item.png",NA,"Electronic device & accessory",1,0,"stimuli/objects/spotlight.jpg",2,0,2.2443,0
4,611976,NA,NA,NA,NA,"stimuli/m_black.jpg","stimuli/Kitchen & utensil.png","stimuli/Electronic device & accessory.png","stimuli/Hand labour tool & accessory.png","stimuli/Outdoor activity & sport item.png",NA,"Outdoor activity & sport item",4,1,"stimuli/objects/badmintonracket.jpg",4,1,1.2848,1
4,611976,NA,NA,NA,NA,"stimuli/m_orange.jpg","stimuli/Kitchen & utensil.png","stimuli/Electronic device & accessory.png","stimuli/Outdoor activity & sport item.png","stimuli/Hand labour tool & accessory.png",NA,"Hand labour tool & accessory",4,1,"stimuli/objects/bucket02.jpg",4,1,1.6614,0
4,611976,NA,NA,NA,NA,"stimuli/m_orange.jpg","stimuli/Kitchen & utensil.png","stimuli/Outdoor activity & sport item.png","stimuli/Hand labour tool & accessory.png","stimuli/Electronic device & accessory.png",NA,"Hand labour tool & accessory",3,1,"stimuli/objects/stepladder.jpg",3,1,2.6069,0
4,611976,NA,NA,NA,NA,"stimuli/m_black.jpg","stimuli/Outdoor activity & sport item.png","stimuli/Kitchen & utensil.png","stimuli/Electronic device & accessory.png","stimuli/Hand labour tool & accessory.png",NA,"Kitchen & utensil",2,0,"stimuli/objects/kitchenscale01a.jpg",1,0,1.8529,1
4,611976,NA,NA,NA,NA,"stimuli/m_orange.jpg","stimuli/Hand labour tool & accessory.png","stimuli/Outdoor activity & sport item.png","stimuli/Electronic device & accessory.png","stimuli/Kitchen & utensil.png",NA,"Hand labour tool & accessory",1,1,"stimuli/objects/metalscissors.jpg",1,1,1.127,0
4,611976,NA,NA,NA,NA,"stimuli/m_black.jpg","stimuli/Hand labour tool & accessory.png","stimuli/Kitchen & utensil.png","stimuli/Electronic device & accessory.png","stimuli/Outdoor activity & sport item.png",NA,"Electronic device & accessory",3,0,"stimuli/objects/coffeemachine.jpg",4,0,0.6691,1
4,611976,NA,NA,NA,NA,"stimuli/m_orange.jpg","stimuli/Electronic device & accessory.png","stimuli/Hand labour tool & accessory.png","stimuli/Outdoor activity & sport item.png","stimuli/Kitchen & utensil.png",NA,"Hand labour tool & accessory",2,1,"stimuli/objects/mitresaw.jpg",4,0,2.3891,0
4,611976,NA,NA,NA,NA,"stimuli/m_orange.jpg","stimuli/Hand labour tool & accessory.png","stimuli/Electronic device & accessory.png","stimuli/Outdoor activity & sport item.png","stimuli/Kitchen & utensil.png",NA,"Kitchen & utensil",4,0,"stimuli/objects/grater01a.jpg",1,0,0.8365,0
4,611976,NA,NA,NA,NA,"stimuli/m_orange.jpg","stimuli/Kitchen & utensil.png","stimuli/Electronic device & accessory.png","stimuli/Hand labour tool & accessory.png","stimuli/Outdoor activity & sport item.png",NA,"Hand labour tool & accessory",3,1,"stimuli/objects/leafblower01.jpg",3,1,1.3185,0
4,611976,NA,NA,NA,NA,"stimuli/m_black.jpg","stimuli/Hand labour tool & accessory.png","stimuli/Kitchen & utensil.png","stimuli/Outdoor activity & sport item.png","stimuli/Electronic device & accessory.png",NA,"Outdoor activity & sport item",3,1,"stimuli/objects/footballhelmet.jpg",3,1,1.6024,1
4,611976,NA,NA,NA,NA,"stimuli/m_black.jpg","stimuli/Hand labour tool & accessory.png","stimuli/Outdoor activity & sport item.png","stimuli/Electronic device & accessory.png","stimuli/Kitchen & utensil.png",NA,"Outdoor activity & sport item",2,1,"stimuli/objects/baseball01a.jpg",2,1,1.1515,1
4,611976,NA,NA,NA,NA,"stimuli/m_black.jpg","stimuli/Kitchen & utensil.png","stimuli/Electronic device & accessory.png","stimuli/Outdoor activity & sport item.png","stimuli/Hand labour tool & accessory.png",NA,"Outdoor activity & sport item",3,1,"stimuli/objects/bicycle.jpg",3,1,1.2284,1
4,611976,NA,NA,NA,NA,"stimuli/m_black.jpg","stimuli/Hand labour tool & accessory.png","stimuli/Electronic device & accessory.png","stimuli/Outdoor activity & sport item.png","stimuli/Kitchen & utensil.png",NA,"Hand labour tool & accessory",1,0,"stimuli/objects/mallet01b.jpg",3,0,0.5408,1
4,611976,NA,NA,NA,NA,"stimuli/m_black.jpg","stimuli/Kitchen & utensil.png","stimuli/Electronic device & accessory.png","stimuli/Hand labour tool & accessory.png","stimuli/Outdoor activity & sport item.png",NA,"Outdoor activity & sport item",4,1,"stimuli/objects/exercisebike.jpg",4,1,1.7518,1
4,611976,NA,NA,NA,NA,"stimuli/m_black.jpg","stimuli/Outdoor activity & sport item.png","stimuli/Electronic device & accessory.png","stimuli/Kitchen & utensil.png","stimuli/Hand labour tool & accessory.png",NA,"Outdoor activity & sport item",1,1,"stimuli/objects/backpack01a.jpg",1,1,0.7545,1
4,611976,NA,NA,NA,NA,"stimuli/m_orange.jpg","stimuli/Kitchen & utensil.png","stimuli/Hand labour tool & accessory.png","stimuli/Outdoor activity & sport item.png","stimuli/Electronic device & accessory.png",NA,"Hand labour tool & accessory",2,1,"stimuli/objects/nailgun.jpg",2,1,3.2839,0
4,611976,NA,NA,NA,NA,"stimuli/m_orange.jpg","stimuli/Kitchen & utensil.png","stimuli/Outdoor activity & sport item.png","stimuli/Electronic device & accessory.png","stimuli/Hand labour tool & accessory.png",NA,"Kitchen & utensil",1,0,"stimuli/objects/icebucket.jpg",4,0,1.6448,0
4,611976,NA,NA,NA,NA,"stimuli/m_orange.jpg","stimuli/Outdoor activity & sport item.png","stimuli/Kitchen & utensil.png","stimuli/Electronic device & accessory.png","stimuli/Hand labour tool & accessory.png",NA,"Outdoor activity & sport item",1,0,"stimuli/objects/handgripper.jpg",4,0,1.2605,0
4,611976,NA,NA,NA,NA,"stimuli/m_orange.jpg","stimuli/Outdoor activity & sport item.png","stimuli/Electronic device & accessory.png","stimuli/Hand labour tool & accessory.png","stimuli/Kitchen & utensil.png",NA,"Hand labour tool & accessory",3,1,"stimuli/objects/gastank.jpg",3,1,1.3883,0
4,611976,NA,NA,NA,NA,"stimuli/m_orange.jpg","stimuli/Kitchen & utensil.png","stimuli/Hand labour tool & accessory.png","stimuli/Electronic device & accessory.png","stimuli/Outdoor activity & sport item.png",NA,"Kitchen & utensil",1,0,"stimuli/objects/teapot.jpg",2,0,1.2611,0
4,611976,NA,NA,NA,NA,"stimuli/m_orange.jpg","stimuli/Hand labour tool & accessory.png","stimuli/Kitchen & utensil.png","stimuli/Electronic device & accessory.png","stimuli/Outdoor activity & sport item.png",NA,"Hand labour tool & accessory",1,1,"stimuli/objects/hoe.jpg",1,1,0.77,0
4,611976,NA,NA,NA,NA,"stimuli/m_orange.jpg","stimuli/Outdoor activity & sport item.png","stimuli/Hand labour tool & accessory.png","stimuli/Electronic device & accessory.png","stimuli/Kitchen & utensil.png",NA,"Hand labour tool & accessory",2,1,"stimuli/objects/squeegee01b.jpg",4,0,1.3614,0
