illustration_loop.thisRepN,illustration_loop.thisTrialN,illustration_loop.thisN,illustration_loop.thisIndex,illustration_loop.ran,images,key,participant,Expra Code,date,expName,psychopyVersion,OS,frameRate,key_resp_4.keys,key_resp_4.corr,n_back_loop.thisRepN,n_back_loop.thisTrialN,n_back_loop.thisN,n_back_loop.thisIndex,n_back_loop.ran,word,CORRanswer,trialtype,hit_NoHit,key_resp_4.rt
0,0,0,0,1,slide 1.jpg,'space’,993,89897,2021-12-02_13h14.02.298,MemLear_ses-01_part-02_label-nBack,2020.1.3,Linux x86_64,60,,,,,,,,,,,,
0,1,1,1,1,slide 2.jpg,'l’,993,89897,2021-12-02_13h14.02.298,MemLear_ses-01_part-02_label-nBack,2020.1.3,Linux x86_64,60,,,,,,,,,,,,
0,2,2,2,1,slide 3.jpg,'l’,993,89897,2021-12-02_13h14.02.298,MemLear_ses-01_part-02_label-nBack,2020.1.3,Linux x86_64,60,,,,,,,,,,,,
0,3,3,3,1,slide 4.jpg,'l’,993,89897,2021-12-02_13h14.02.298,MemLear_ses-01_part-02_label-nBack,2020.1.3,Linux x86_64,60,,,,,,,,,,,,
0,4,4,4,1,slide 5.jpg,'d’,993,89897,2021-12-02_13h14.02.298,MemLear_ses-01_part-02_label-nBack,2020.1.3,Linux x86_64,60,,,,,,,,,,,,
0,5,5,5,1,slide 6.jpg,'l’,993,89897,2021-12-02_13h14.02.298,MemLear_ses-01_part-02_label-nBack,2020.1.3,Linux x86_64,60,,,,,,,,,,,,
,,,,,,,993,89897,2021-12-02_13h14.02.298,MemLear_ses-01_part-02_label-nBack,2020.1.3,Linux x86_64,60,,0,0,0,0,0,1,bless,l,0,NoHit,
,,,,,,,993,89897,2021-12-02_13h14.02.298,MemLear_ses-01_part-02_label-nBack,2020.1.3,Linux x86_64,60,,0,0,1,1,1,1,nature,l,0,NoHit,
,,,,,,,993,89897,2021-12-02_13h14.02.298,MemLear_ses-01_part-02_label-nBack,2020.1.3,Linux x86_64,60,,0,0,2,2,2,1,carefree,l,0,NoHit,
,,,,,,,993,89897,2021-12-02_13h14.02.298,MemLear_ses-01_part-02_label-nBack,2020.1.3,Linux x86_64,60,,0,0,3,3,3,1,nature,d,1,Hit,
,,,,,,,993,89897,2021-12-02_13h14.02.298,MemLear_ses-01_part-02_label-nBack,2020.1.3,Linux x86_64,60,,0,0,4,4,4,1,easygoing,l,0,NoHit,
,,,,,,,993,89897,2021-12-02_13h14.02.298,MemLear_ses-01_part-02_label-nBack,2020.1.3,Linux x86_64,60,,0,0,5,5,5,1,pillow,l,0,NoHit,
,,,,,,,993,89897,2021-12-02_13h14.02.298,MemLear_ses-01_part-02_label-nBack,2020.1.3,Linux x86_64,60,,0,0,6,6,6,1,easygoing,d,1,Hit,
,,,,,,,993,89897,2021-12-02_13h14.02.298,MemLear_ses-01_part-02_label-nBack,2020.1.3,Linux x86_64,60,,0,0,7,7,7,1,gentle,l,0,NoHit,
,,,,,,,993,89897,2021-12-02_13h14.02.298,MemLear_ses-01_part-02_label-nBack,2020.1.3,Linux x86_64,60,,0,0,8,8,8,1,square,l,0,NoHit,
,,,,,,,993,89897,2021-12-02_13h14.02.298,MemLear_ses-01_part-02_label-nBack,2020.1.3,Linux x86_64,60,,0,0,9,9,9,1,gentle,d,1,Hit,
,,,,,,,993,89897,2021-12-02_13h14.02.298,MemLear_ses-01_part-02_label-nBack,2020.1.3,Linux x86_64,60,,0,0,10,10,10,1,carefree,l,0,NoHit,
,,,,,,,993,89897,2021-12-02_13h14.02.298,MemLear_ses-01_part-02_label-nBack,2020.1.3,Linux x86_64,60,,0,0,11,11,11,1,tool,l,0,NoHit,
,,,,,,,993,89897,2021-12-02_13h14.02.298,MemLear_ses-01_part-02_label-nBack,2020.1.3,Linux x86_64,60,"[""l"",""d"",""l"",""d"",""l""]",0,0,12,12,12,1,bored,l,0,NoHit,"[0.1048999999999296,0.4871000000001118,0.8787000000002081,1.1574999999999989,1.6573999999999103]"
,,,,,,,993,89897,2021-12-02_13h14.02.298,MemLear_ses-01_part-02_label-nBack,2020.1.3,Linux x86_64,60,"[""d"",""l"",""d"",""l""]",0,0,13,13,13,1,tool,d,1,Hit,"[0.24670000000017467,0.768999999999977,0.96290000000036,1.1773000000002583]"
,,,,,,,993,89897,2021-12-02_13h14.02.298,MemLear_ses-01_part-02_label-nBack,2020.1.3,Linux x86_64,60,,0,0,14,14,14,1,home,l,0,NoHit,
,,,,,,,993,89897,2021-12-02_13h14.02.298,MemLear_ses-01_part-02_label-nBack,2020.1.3,Linux x86_64,60,,0,0,15,15,15,1,immature,l,0,NoHit,
,,,,,,,993,89897,2021-12-02_13h14.02.298,MemLear_ses-01_part-02_label-nBack,2020.1.3,Linux x86_64,60,,0,0,16,16,16,1,home,d,1,Hit,
,,,,,,,993,89897,2021-12-02_13h14.02.298,MemLear_ses-01_part-02_label-nBack,2020.1.3,Linux x86_64,60,,0,0,17,17,17,1,fault,l,0,NoHit,
,,,,,,,993,89897,2021-12-02_13h14.02.298,MemLear_ses-01_part-02_label-nBack,2020.1.3,Linux x86_64,60,,0,0,18,18,18,1,pillow,l,0,NoHit,
,,,,,,,993,89897,2021-12-02_13h14.02.298,MemLear_ses-01_part-02_label-nBack,2020.1.3,Linux x86_64,60,,0,0,19,19,19,1,violin,l,0,NoHit,
,,,,,,,993,89897,2021-12-02_13h14.02.298,MemLear_ses-01_part-02_label-nBack,2020.1.3,Linux x86_64,60,,0,0,20,20,20,1,violin,d,1,Hit,
,,,,,,,993,89897,2021-12-02_13h14.02.298,MemLear_ses-01_part-02_label-nBack,2020.1.3,Linux x86_64,60,,0,0,21,21,21,1,tense,l,0,NoHit,
,,,,,,,993,89897,2021-12-02_13h14.02.298,MemLear_ses-01_part-02_label-nBack,2020.1.3,Linux x86_64,60,,0,0,22,22,22,1,confident,l,0,NoHit,
,,,,,,,993,89897,2021-12-02_13h14.02.298,MemLear_ses-01_part-02_label-nBack,2020.1.3,Linux x86_64,60,,0,0,23,23,23,1,bomb,l,0,NoHit,
,,,,,,,993,89897,2021-12-02_13h14.02.298,MemLear_ses-01_part-02_label-nBack,2020.1.3,Linux x86_64,60,,0,0,24,24,24,1,confident,d,1,Hit,
,,,,,,,993,89897,2021-12-02_13h14.02.298,MemLear_ses-01_part-02_label-nBack,2020.1.3,Linux x86_64,60,,0,0,25,25,25,1,butterfly,l,0,NoHit,
,,,,,,,993,89897,2021-12-02_13h14.02.298,MemLear_ses-01_part-02_label-nBack,2020.1.3,Linux x86_64,60,,0,0,26,26,26,1,cheer,l,0,NoHit,
,,,,,,,993,89897,2021-12-02_13h14.02.298,MemLear_ses-01_part-02_label-nBack,2020.1.3,Linux x86_64,60,,0,0,27,27,27,1,street,l,0,NoHit,
,,,,,,,993,89897,2021-12-02_13h14.02.298,MemLear_ses-01_part-02_label-nBack,2020.1.3,Linux x86_64,60,,0,0,28,28,28,1,cheer,d,1,Hit,
,,,,,,,993,89897,2021-12-02_13h14.02.298,MemLear_ses-01_part-02_label-nBack,2020.1.3,Linux x86_64,60,,0,0,29,29,29,1,taxi,l,0,NoHit,
,,,,,,,993,89897,2021-12-02_13h14.02.298,MemLear_ses-01_part-02_label-nBack,2020.1.3,Linux x86_64,60,,0,0,30,30,30,1,adventure,l,0,NoHit,
,,,,,,,993,89897,2021-12-02_13h14.02.298,MemLear_ses-01_part-02_label-nBack,2020.1.3,Linux x86_64,60,,0,0,31,31,31,1,crutch,l,0,NoHit,
,,,,,,,993,89897,2021-12-02_13h14.02.298,MemLear_ses-01_part-02_label-nBack,2020.1.3,Linux x86_64,60,,0,0,32,32,32,1,adventure,d,1,Hit,
,,,,,,,993,89897,2021-12-02_13h14.02.298,MemLear_ses-01_part-02_label-nBack,2020.1.3,Linux x86_64,60,,0,0,33,33,33,1,vest,l,0,NoHit,
,,,,,,,993,89897,2021-12-02_13h14.02.298,MemLear_ses-01_part-02_label-nBack,2020.1.3,Linux x86_64,60,,0,0,34,34,34,1,taxi,l,0,NoHit,
,,,,,,,993,89897,2021-12-02_13h14.02.298,MemLear_ses-01_part-02_label-nBack,2020.1.3,Linux x86_64,60,,0,0,35,35,35,1,brave,l,0,NoHit,
,,,,,,,993,89897,2021-12-02_13h14.02.298,MemLear_ses-01_part-02_label-nBack,2020.1.3,Linux x86_64,60,,0,0,36,36,36,1,square,l,0,NoHit,
,,,,,,,993,89897,2021-12-02_13h14.02.298,MemLear_ses-01_part-02_label-nBack,2020.1.3,Linux x86_64,60,,0,0,37,37,37,1,brave,d,1,Hit,
,,,,,,,993,89897,2021-12-02_13h14.02.298,MemLear_ses-01_part-02_label-nBack,2020.1.3,Linux x86_64,60,,0,0,38,38,38,1,unhappy,l,0,NoHit,
,,,,,,,993,89897,2021-12-02_13h14.02.298,MemLear_ses-01_part-02_label-nBack,2020.1.3,Linux x86_64,60,,0,0,39,39,39,1,deformed,l,0,NoHit,
,,,,,,,993,89897,2021-12-02_13h14.02.298,MemLear_ses-01_part-02_label-nBack,2020.1.3,Linux x86_64,60,,0,0,40,40,40,1,rifle,l,0,NoHit,
,,,,,,,993,89897,2021-12-02_13h14.02.298,MemLear_ses-01_part-02_label-nBack,2020.1.3,Linux x86_64,60,,0,0,41,41,41,1,deformed,d,1,Hit,
,,,,,,,993,89897,2021-12-02_13h14.02.298,MemLear_ses-01_part-02_label-nBack,2020.1.3,Linux x86_64,60,,0,0,42,42,42,1,tense,l,0,NoHit,
,,,,,,,993,89897,2021-12-02_13h14.02.298,MemLear_ses-01_part-02_label-nBack,2020.1.3,Linux x86_64,60,,0,0,43,43,43,1,inferior,l,0,NoHit,
,,,,,,,993,89897,2021-12-02_13h14.02.298,MemLear_ses-01_part-02_label-nBack,2020.1.3,Linux x86_64,60,,0,0,44,44,44,1,exercise,l,0,NoHit,
,,,,,,,993,89897,2021-12-02_13h14.02.298,MemLear_ses-01_part-02_label-nBack,2020.1.3,Linux x86_64,60,,0,0,45,45,45,1,inferior,d,1,Hit,
,,,,,,,993,89897,2021-12-02_13h14.02.298,MemLear_ses-01_part-02_label-nBack,2020.1.3,Linux x86_64,60,,0,0,46,46,46,1,crutch,l,0,NoHit,
,,,,,,,993,89897,2021-12-02_13h14.02.298,MemLear_ses-01_part-02_label-nBack,2020.1.3,Linux x86_64,60,,0,0,47,47,47,1,obesity,l,0,NoHit,
,,,,,,,993,89897,2021-12-02_13h14.02.298,MemLear_ses-01_part-02_label-nBack,2020.1.3,Linux x86_64,60,,0,0,48,48,48,1,bless,l,0,NoHit,
,,,,,,,993,89897,2021-12-02_13h14.02.298,MemLear_ses-01_part-02_label-nBack,2020.1.3,Linux x86_64,60,,0,0,49,49,49,1,obesity,d,1,Hit,
,,,,,,,993,89897,2021-12-02_13h14.02.298,MemLear_ses-01_part-02_label-nBack,2020.1.3,Linux x86_64,60,,0,0,50,50,50,1,pistol,l,0,NoHit,
,,,,,,,993,89897,2021-12-02_13h14.02.298,MemLear_ses-01_part-02_label-nBack,2020.1.3,Linux x86_64,60,,0,0,51,51,51,1,bored,l,0,NoHit,
,,,,,,,993,89897,2021-12-02_13h14.02.298,MemLear_ses-01_part-02_label-nBack,2020.1.3,Linux x86_64,60,,0,0,52,52,52,1,pity,l,0,NoHit,
,,,,,,,993,89897,2021-12-02_13h14.02.298,MemLear_ses-01_part-02_label-nBack,2020.1.3,Linux x86_64,60,,0,0,53,53,53,1,politeness,l,0,NoHit,
,,,,,,,993,89897,2021-12-02_13h14.02.298,MemLear_ses-01_part-02_label-nBack,2020.1.3,Linux x86_64,60,,0,0,54,54,54,1,pity,d,1,Hit,
,,,,,,,993,89897,2021-12-02_13h14.02.298,MemLear_ses-01_part-02_label-nBack,2020.1.3,Linux x86_64,60,,0,0,55,55,55,1,beautiful,l,0,NoHit,
,,,,,,,993,89897,2021-12-02_13h14.02.298,MemLear_ses-01_part-02_label-nBack,2020.1.3,Linux x86_64,60,,0,0,56,56,56,1,street,l,0,NoHit,
,,,,,,,993,89897,2021-12-02_13h14.02.298,MemLear_ses-01_part-02_label-nBack,2020.1.3,Linux x86_64,60,,0,0,57,57,57,1,beautiful,d,1,Hit,
,,,,,,,993,89897,2021-12-02_13h14.02.298,MemLear_ses-01_part-02_label-nBack,2020.1.3,Linux x86_64,60,,0,0,58,58,58,1,aroused,l,0,NoHit,
,,,,,,,993,89897,2021-12-02_13h14.02.298,MemLear_ses-01_part-02_label-nBack,2020.1.3,Linux x86_64,60,,0,0,59,59,59,1,demon,l,0,NoHit,
,,,,,,,993,89897,2021-12-02_13h14.02.298,MemLear_ses-01_part-02_label-nBack,2020.1.3,Linux x86_64,60,,0,0,60,60,60,1,aroused,d,1,Hit,
,,,,,,,993,89897,2021-12-02_13h14.02.298,MemLear_ses-01_part-02_label-nBack,2020.1.3,Linux x86_64,60,,0,0,61,61,61,1,cash,l,0,NoHit,
,,,,,,,993,89897,2021-12-02_13h14.02.298,MemLear_ses-01_part-02_label-nBack,2020.1.3,Linux x86_64,60,,0,0,62,62,62,1,immature,l,0,NoHit,
,,,,,,,993,89897,2021-12-02_13h14.02.298,MemLear_ses-01_part-02_label-nBack,2020.1.3,Linux x86_64,60,,0,0,63,63,63,1,cheer,l,0,NoHit,
,,,,,,,993,89897,2021-12-02_13h14.02.298,MemLear_ses-01_part-02_label-nBack,2020.1.3,Linux x86_64,60,,0,0,64,64,64,1,cheer,d,1,Hit,
,,,,,,,993,89897,2021-12-02_13h14.02.298,MemLear_ses-01_part-02_label-nBack,2020.1.3,Linux x86_64,60,,0,0,65,65,65,1,controlling,l,0,NoHit,
,,,,,,,993,89897,2021-12-02_13h14.02.298,MemLear_ses-01_part-02_label-nBack,2020.1.3,Linux x86_64,60,,0,0,66,66,66,1,messy,l,0,NoHit,
,,,,,,,993,89897,2021-12-02_13h14.02.298,MemLear_ses-01_part-02_label-nBack,2020.1.3,Linux x86_64,60,,0,0,67,67,67,1,cliff,l,0,NoHit,
,,,,,,,993,89897,2021-12-02_13h14.02.298,MemLear_ses-01_part-02_label-nBack,2020.1.3,Linux x86_64,60,,0,0,68,68,68,1,butterfly,l,0,NoHit,
,,,,,,,993,89897,2021-12-02_13h14.02.298,MemLear_ses-01_part-02_label-nBack,2020.1.3,Linux x86_64,60,,0,0,69,69,69,1,cliff,d,1,Hit,
,,,,,,,993,89897,2021-12-02_13h14.02.298,MemLear_ses-01_part-02_label-nBack,2020.1.3,Linux x86_64,60,,0,0,70,70,70,1,erotic,l,0,NoHit,
,,,,,,,993,89897,2021-12-02_13h14.02.298,MemLear_ses-01_part-02_label-nBack,2020.1.3,Linux x86_64,60,,0,0,71,71,71,1,vest,l,0,NoHit,
,,,,,,,993,89897,2021-12-02_13h14.02.298,MemLear_ses-01_part-02_label-nBack,2020.1.3,Linux x86_64,60,,0,0,72,72,72,1,dazzle,l,0,NoHit,
,,,,,,,993,89897,2021-12-02_13h14.02.298,MemLear_ses-01_part-02_label-nBack,2020.1.3,Linux x86_64,60,,0,0,73,73,73,1,disloyal,l,0,NoHit,
,,,,,,,993,89897,2021-12-02_13h14.02.298,MemLear_ses-01_part-02_label-nBack,2020.1.3,Linux x86_64,60,,0,0,74,74,74,1,dazzle,d,1,Hit,
