illustration_loop.thisRepN,illustration_loop.thisTrialN,illustration_loop.thisN,illustration_loop.thisIndex,illustration_loop.ran,images,key,participant,Expra Code,date,expName,psychopyVersion,OS,frameRate,key_resp_4.keys,key_resp_4.corr,key_resp_4.rt,n_back_loop.thisRepN,n_back_loop.thisTrialN,n_back_loop.thisN,n_back_loop.thisIndex,n_back_loop.ran,word,CORRanswer,trialtype,hit_NoHit
0,0,0,0,1,slide 1.jpg,'space’,5,824852,2021-12-27_17h26.25.737,MemLear_ses-01_part-02_label-nBack,2020.1.3,Win32,60,,,,,,,,,,,,
0,1,1,1,1,slide 2.jpg,'l’,5,824852,2021-12-27_17h26.25.737,MemLear_ses-01_part-02_label-nBack,2020.1.3,Win32,60,,,,,,,,,,,,
0,2,2,2,1,slide 3.jpg,'l’,5,824852,2021-12-27_17h26.25.737,MemLear_ses-01_part-02_label-nBack,2020.1.3,Win32,60,,,,,,,,,,,,
0,3,3,3,1,slide 4.jpg,'l’,5,824852,2021-12-27_17h26.25.737,MemLear_ses-01_part-02_label-nBack,2020.1.3,Win32,60,,,,,,,,,,,,
0,4,4,4,1,slide 5.jpg,'d’,5,824852,2021-12-27_17h26.25.737,MemLear_ses-01_part-02_label-nBack,2020.1.3,Win32,60,,,,,,,,,,,,
0,5,5,5,1,slide 6.jpg,'l’,5,824852,2021-12-27_17h26.25.737,MemLear_ses-01_part-02_label-nBack,2020.1.3,Win32,60,,,,,,,,,,,,
,,,,,,,5,824852,2021-12-27_17h26.25.737,MemLear_ses-01_part-02_label-nBack,2020.1.3,Win32,60,"[""l""]",1,[6.828299999999814],0,0,0,0,1,bless,l,0,NoHit
,,,,,,,5,824852,2021-12-27_17h26.25.737,MemLear_ses-01_part-02_label-nBack,2020.1.3,Win32,60,"[""l""]",1,[1.1894000000003757],0,1,1,1,1,nature,l,0,NoHit
,,,,,,,5,824852,2021-12-27_17h26.25.737,MemLear_ses-01_part-02_label-nBack,2020.1.3,Win32,60,"[""l""]",1,[1.5544000000003706],0,2,2,2,1,carefree,l,0,NoHit
,,,,,,,5,824852,2021-12-27_17h26.25.737,MemLear_ses-01_part-02_label-nBack,2020.1.3,Win32,60,"[""d""]",1,[1.7146000000000896],0,3,3,3,1,nature,d,1,Hit
,,,,,,,5,824852,2021-12-27_17h26.25.737,MemLear_ses-01_part-02_label-nBack,2020.1.3,Win32,60,"[""l""]",1,[1.4964999999999975],0,4,4,4,1,easygoing,l,0,NoHit
,,,,,,,5,824852,2021-12-27_17h26.25.737,MemLear_ses-01_part-02_label-nBack,2020.1.3,Win32,60,"[""l""]",1,[0.998800000000287],0,5,5,5,1,pillow,l,0,NoHit
,,,,,,,5,824852,2021-12-27_17h26.25.737,MemLear_ses-01_part-02_label-nBack,2020.1.3,Win32,60,"[""d""]",1,[1.5658999999998997],0,6,6,6,1,easygoing,d,1,Hit
,,,,,,,5,824852,2021-12-27_17h26.25.737,MemLear_ses-01_part-02_label-nBack,2020.1.3,Win32,60,"[""l""]",1,[1.3729999999999905],0,7,7,7,1,gentle,l,0,NoHit
,,,,,,,5,824852,2021-12-27_17h26.25.737,MemLear_ses-01_part-02_label-nBack,2020.1.3,Win32,60,"[""l""]",1,[1.2493999999998948],0,8,8,8,1,square,l,0,NoHit
,,,,,,,5,824852,2021-12-27_17h26.25.737,MemLear_ses-01_part-02_label-nBack,2020.1.3,Win32,60,"[""d""]",1,[1.2291999999997216],0,9,9,9,1,gentle,d,1,Hit
,,,,,,,5,824852,2021-12-27_17h26.25.737,MemLear_ses-01_part-02_label-nBack,2020.1.3,Win32,60,"[""l""]",1,[1.491799999999813],0,10,10,10,1,carefree,l,0,NoHit
,,,,,,,5,824852,2021-12-27_17h26.25.737,MemLear_ses-01_part-02_label-nBack,2020.1.3,Win32,60,"[""l""]",1,[1.4728000000002766],0,11,11,11,1,tool,l,0,NoHit
,,,,,,,5,824852,2021-12-27_17h26.25.737,MemLear_ses-01_part-02_label-nBack,2020.1.3,Win32,60,"[""l""]",1,[1.0072000000001822],0,12,12,12,1,bored,l,0,NoHit
,,,,,,,5,824852,2021-12-27_17h26.25.737,MemLear_ses-01_part-02_label-nBack,2020.1.3,Win32,60,"[""d""]",1,[1.0012999999998158],0,13,13,13,1,tool,d,1,Hit
,,,,,,,5,824852,2021-12-27_17h26.25.737,MemLear_ses-01_part-02_label-nBack,2020.1.3,Win32,60,"[""l""]",1,[1.097999999999999],0,14,14,14,1,home,l,0,NoHit
,,,,,,,5,824852,2021-12-27_17h26.25.737,MemLear_ses-01_part-02_label-nBack,2020.1.3,Win32,60,"[""l""]",1,[1.184400000000366],0,15,15,15,1,immature,l,0,NoHit
,,,,,,,5,824852,2021-12-27_17h26.25.737,MemLear_ses-01_part-02_label-nBack,2020.1.3,Win32,60,"[""d""]",1,[0.7668999999999073],0,16,16,16,1,home,d,1,Hit
,,,,,,,5,824852,2021-12-27_17h26.25.737,MemLear_ses-01_part-02_label-nBack,2020.1.3,Win32,60,"[""l""]",1,[3.8694000000003683],0,17,17,17,1,fault,l,0,NoHit
,,,,,,,5,824852,2021-12-27_17h26.25.737,MemLear_ses-01_part-02_label-nBack,2020.1.3,Win32,60,"[""l""]",1,[1.707799999999807],0,18,18,18,1,pillow,l,0,NoHit
,,,,,,,5,824852,2021-12-27_17h26.25.737,MemLear_ses-01_part-02_label-nBack,2020.1.3,Win32,60,"[""l""]",1,[2.126499999999993],0,19,19,19,1,violin,l,0,NoHit
,,,,,,,5,824852,2021-12-27_17h26.25.737,MemLear_ses-01_part-02_label-nBack,2020.1.3,Win32,60,"[""l""]",0,[1.482399999999899],0,20,20,20,1,violin,d,1,Hit
,,,,,,,5,824852,2021-12-27_17h26.25.737,MemLear_ses-01_part-02_label-nBack,2020.1.3,Win32,60,"[""l""]",1,[1.1021000000000925],0,21,21,21,1,tense,l,0,NoHit
,,,,,,,5,824852,2021-12-27_17h26.25.737,MemLear_ses-01_part-02_label-nBack,2020.1.3,Win32,60,"[""l""]",1,[1.0993999999999033],0,22,22,22,1,confident,l,0,NoHit
,,,,,,,5,824852,2021-12-27_17h26.25.737,MemLear_ses-01_part-02_label-nBack,2020.1.3,Win32,60,"[""l""]",1,[0.9333000000002869],0,23,23,23,1,bomb,l,0,NoHit
,,,,,,,5,824852,2021-12-27_17h26.25.737,MemLear_ses-01_part-02_label-nBack,2020.1.3,Win32,60,"[""d""]",1,[1.2307999999998174],0,24,24,24,1,confident,d,1,Hit
,,,,,,,5,824852,2021-12-27_17h26.25.737,MemLear_ses-01_part-02_label-nBack,2020.1.3,Win32,60,"[""l""]",1,[2.296100000000095],0,25,25,25,1,butterfly,l,0,NoHit
,,,,,,,5,824852,2021-12-27_17h26.25.737,MemLear_ses-01_part-02_label-nBack,2020.1.3,Win32,60,"[""l""]",1,[1.120500000000007],0,26,26,26,1,cheer,l,0,NoHit
,,,,,,,5,824852,2021-12-27_17h26.25.737,MemLear_ses-01_part-02_label-nBack,2020.1.3,Win32,60,"[""l""]",1,[1.1225000000000023],0,27,27,27,1,street,l,0,NoHit
,,,,,,,5,824852,2021-12-27_17h26.25.737,MemLear_ses-01_part-02_label-nBack,2020.1.3,Win32,60,"[""d""]",1,[1.2517999999998182],0,28,28,28,1,cheer,d,1,Hit
,,,,,,,5,824852,2021-12-27_17h26.25.737,MemLear_ses-01_part-02_label-nBack,2020.1.3,Win32,60,"[""l""]",1,[1.9913999999999135],0,29,29,29,1,taxi,l,0,NoHit
,,,,,,,5,824852,2021-12-27_17h26.25.737,MemLear_ses-01_part-02_label-nBack,2020.1.3,Win32,60,"[""l""]",1,[1.4422000000001844],0,30,30,30,1,adventure,l,0,NoHit
,,,,,,,5,824852,2021-12-27_17h26.25.737,MemLear_ses-01_part-02_label-nBack,2020.1.3,Win32,60,"[""l""]",1,[1.0392000000001929],0,31,31,31,1,crutch,l,0,NoHit
,,,,,,,5,824852,2021-12-27_17h26.25.737,MemLear_ses-01_part-02_label-nBack,2020.1.3,Win32,60,"[""d""]",1,[0.8570999999996332],0,32,32,32,1,adventure,d,1,Hit
,,,,,,,5,824852,2021-12-27_17h26.25.737,MemLear_ses-01_part-02_label-nBack,2020.1.3,Win32,60,"[""l""]",1,[0.7633999999999048],0,33,33,33,1,vest,l,0,NoHit
,,,,,,,5,824852,2021-12-27_17h26.25.737,MemLear_ses-01_part-02_label-nBack,2020.1.3,Win32,60,"[""l""]",1,[1.132600000000096],0,34,34,34,1,taxi,l,0,NoHit
,,,,,,,5,824852,2021-12-27_17h26.25.737,MemLear_ses-01_part-02_label-nBack,2020.1.3,Win32,60,"[""l""]",1,[0.9837999999998033],0,35,35,35,1,brave,l,0,NoHit
,,,,,,,5,824852,2021-12-27_17h26.25.737,MemLear_ses-01_part-02_label-nBack,2020.1.3,Win32,60,"[""l""]",1,[1.0634999999999764],0,36,36,36,1,square,l,0,NoHit
,,,,,,,5,824852,2021-12-27_17h26.25.737,MemLear_ses-01_part-02_label-nBack,2020.1.3,Win32,60,"[""d""]",1,[1.0193000000002996],0,37,37,37,1,brave,d,1,Hit
,,,,,,,5,824852,2021-12-27_17h26.25.737,MemLear_ses-01_part-02_label-nBack,2020.1.3,Win32,60,"[""l""]",1,[0.8617000000001838],0,38,38,38,1,unhappy,l,0,NoHit
,,,,,,,5,824852,2021-12-27_17h26.25.737,MemLear_ses-01_part-02_label-nBack,2020.1.3,Win32,60,"[""l""]",1,[1.5983999999999128],0,39,39,39,1,deformed,l,0,NoHit
,,,,,,,5,824852,2021-12-27_17h26.25.737,MemLear_ses-01_part-02_label-nBack,2020.1.3,Win32,60,"[""l""]",1,[0.7720999999996252],0,40,40,40,1,rifle,l,0,NoHit
,,,,,,,5,824852,2021-12-27_17h26.25.737,MemLear_ses-01_part-02_label-nBack,2020.1.3,Win32,60,"[""d""]",1,[0.9839999999999804],0,41,41,41,1,deformed,d,1,Hit
,,,,,,,5,824852,2021-12-27_17h26.25.737,MemLear_ses-01_part-02_label-nBack,2020.1.3,Win32,60,"[""l""]",1,[0.720899999999915],0,42,42,42,1,tense,l,0,NoHit
,,,,,,,5,824852,2021-12-27_17h26.25.737,MemLear_ses-01_part-02_label-nBack,2020.1.3,Win32,60,"[""l""]",1,[0.7339999999999804],0,43,43,43,1,inferior,l,0,NoHit
,,,,,,,5,824852,2021-12-27_17h26.25.737,MemLear_ses-01_part-02_label-nBack,2020.1.3,Win32,60,"[""l""]",1,[0.9242999999998176],0,44,44,44,1,exercise,l,0,NoHit
,,,,,,,5,824852,2021-12-27_17h26.25.737,MemLear_ses-01_part-02_label-nBack,2020.1.3,Win32,60,"[""d""]",1,[1.0921000000001015],0,45,45,45,1,inferior,d,1,Hit
,,,,,,,5,824852,2021-12-27_17h26.25.737,MemLear_ses-01_part-02_label-nBack,2020.1.3,Win32,60,"[""l""]",1,[0.7295000000000016],0,46,46,46,1,crutch,l,0,NoHit
,,,,,,,5,824852,2021-12-27_17h26.25.737,MemLear_ses-01_part-02_label-nBack,2020.1.3,Win32,60,"[""l""]",1,[1.285299999999836],0,47,47,47,1,obesity,l,0,NoHit
,,,,,,,5,824852,2021-12-27_17h26.25.737,MemLear_ses-01_part-02_label-nBack,2020.1.3,Win32,60,"[""l""]",1,[1.2300000000000182],0,48,48,48,1,bless,l,0,NoHit
,,,,,,,5,824852,2021-12-27_17h26.25.737,MemLear_ses-01_part-02_label-nBack,2020.1.3,Win32,60,"[""d""]",1,[1.0254999999999939],0,49,49,49,1,obesity,d,1,Hit
,,,,,,,5,824852,2021-12-27_17h26.25.737,MemLear_ses-01_part-02_label-nBack,2020.1.3,Win32,60,"[""l""]",1,[0.7552999999998065],0,50,50,50,1,pistol,l,0,NoHit
,,,,,,,5,824852,2021-12-27_17h26.25.737,MemLear_ses-01_part-02_label-nBack,2020.1.3,Win32,60,"[""l""]",1,[0.7794000000003507],0,51,51,51,1,bored,l,0,NoHit
,,,,,,,5,824852,2021-12-27_17h26.25.737,MemLear_ses-01_part-02_label-nBack,2020.1.3,Win32,60,"[""l""]",1,[1.1656000000000972],0,52,52,52,1,pity,l,0,NoHit
,,,,,,,5,824852,2021-12-27_17h26.25.737,MemLear_ses-01_part-02_label-nBack,2020.1.3,Win32,60,"[""l""]",1,[1.100999999999999],0,53,53,53,1,politeness,l,0,NoHit
,,,,,,,5,824852,2021-12-27_17h26.25.737,MemLear_ses-01_part-02_label-nBack,2020.1.3,Win32,60,"[""d""]",1,[2.0504000000003657],0,54,54,54,1,pity,d,1,Hit
,,,,,,,5,824852,2021-12-27_17h26.25.737,MemLear_ses-01_part-02_label-nBack,2020.1.3,Win32,60,"[""l""]",1,[0.9463999999998975],0,55,55,55,1,beautiful,l,0,NoHit
,,,,,,,5,824852,2021-12-27_17h26.25.737,MemLear_ses-01_part-02_label-nBack,2020.1.3,Win32,60,"[""l""]",1,[1.091899999999896],0,56,56,56,1,street,l,0,NoHit
,,,,,,,5,824852,2021-12-27_17h26.25.737,MemLear_ses-01_part-02_label-nBack,2020.1.3,Win32,60,"[""d""]",1,[1.1476999999997304],0,57,57,57,1,beautiful,d,1,Hit
,,,,,,,5,824852,2021-12-27_17h26.25.737,MemLear_ses-01_part-02_label-nBack,2020.1.3,Win32,60,"[""l""]",1,[0.8135999999996386],0,58,58,58,1,aroused,l,0,NoHit
,,,,,,,5,824852,2021-12-27_17h26.25.737,MemLear_ses-01_part-02_label-nBack,2020.1.3,Win32,60,"[""l""]",1,[0.9675000000000011],0,59,59,59,1,demon,l,0,NoHit
,,,,,,,5,824852,2021-12-27_17h26.25.737,MemLear_ses-01_part-02_label-nBack,2020.1.3,Win32,60,"[""d""]",1,[0.9471999999997252],0,60,60,60,1,aroused,d,1,Hit
,,,,,,,5,824852,2021-12-27_17h26.25.737,MemLear_ses-01_part-02_label-nBack,2020.1.3,Win32,60,"[""l""]",1,[0.883499999999998],0,61,61,61,1,cash,l,0,NoHit
,,,,,,,5,824852,2021-12-27_17h26.25.737,MemLear_ses-01_part-02_label-nBack,2020.1.3,Win32,60,"[""l""]",1,[3.622199999999708],0,62,62,62,1,immature,l,0,NoHit
,,,,,,,5,824852,2021-12-27_17h26.25.737,MemLear_ses-01_part-02_label-nBack,2020.1.3,Win32,60,"[""l""]",1,[5.131600000000077],0,63,63,63,1,cheer,l,0,NoHit
,,,,,,,5,824852,2021-12-27_17h26.25.737,MemLear_ses-01_part-02_label-nBack,2020.1.3,Win32,60,"[""l""]",0,[1.0133999999999048],0,64,64,64,1,cheer,d,1,Hit
,,,,,,,5,824852,2021-12-27_17h26.25.737,MemLear_ses-01_part-02_label-nBack,2020.1.3,Win32,60,"[""l""]",1,[0.9209999999999923],0,65,65,65,1,controlling,l,0,NoHit
,,,,,,,5,824852,2021-12-27_17h26.25.737,MemLear_ses-01_part-02_label-nBack,2020.1.3,Win32,60,"[""l""]",1,[0.8792999999998017],0,66,66,66,1,messy,l,0,NoHit
,,,,,,,5,824852,2021-12-27_17h26.25.737,MemLear_ses-01_part-02_label-nBack,2020.1.3,Win32,60,"[""l""]",1,[0.8505000000000109],0,67,67,67,1,cliff,l,0,NoHit
,,,,,,,5,824852,2021-12-27_17h26.25.737,MemLear_ses-01_part-02_label-nBack,2020.1.3,Win32,60,"[""l""]",1,[0.9140000000000157],0,68,68,68,1,butterfly,l,0,NoHit
,,,,,,,5,824852,2021-12-27_17h26.25.737,MemLear_ses-01_part-02_label-nBack,2020.1.3,Win32,60,"[""d""]",1,[2.0516999999996983],0,69,69,69,1,cliff,d,1,Hit
,,,,,,,5,824852,2021-12-27_17h26.25.737,MemLear_ses-01_part-02_label-nBack,2020.1.3,Win32,60,"[""l""]",1,[0.958500000000015],0,70,70,70,1,erotic,l,0,NoHit
,,,,,,,5,824852,2021-12-27_17h26.25.737,MemLear_ses-01_part-02_label-nBack,2020.1.3,Win32,60,"[""l""]",1,[1.1187999999998226],0,71,71,71,1,vest,l,0,NoHit
,,,,,,,5,824852,2021-12-27_17h26.25.737,MemLear_ses-01_part-02_label-nBack,2020.1.3,Win32,60,"[""l""]",1,[1.2027999999997974],0,72,72,72,1,dazzle,l,0,NoHit
,,,,,,,5,824852,2021-12-27_17h26.25.737,MemLear_ses-01_part-02_label-nBack,2020.1.3,Win32,60,"[""l""]",1,[0.8716000000000861],0,73,73,73,1,disloyal,l,0,NoHit
,,,,,,,5,824852,2021-12-27_17h26.25.737,MemLear_ses-01_part-02_label-nBack,2020.1.3,Win32,60,"[""d""]",1,[1.1359999999999957],0,74,74,74,1,dazzle,d,1,Hit
,,,,,,,5,824852,2021-12-27_17h26.25.737,MemLear_ses-01_part-02_label-nBack,2020.1.3,Win32,60,"[""l""]",1,[0.9412999999998135],0,75,75,75,1,defiant,l,0,NoHit
,,,,,,,5,824852,2021-12-27_17h26.25.737,MemLear_ses-01_part-02_label-nBack,2020.1.3,Win32,60,"[""l""]",1,[1.0134999999999934],0,76,76,76,1,fault,l,0,NoHit
,,,,,,,5,824852,2021-12-27_17h26.25.737,MemLear_ses-01_part-02_label-nBack,2020.1.3,Win32,60,"[""d""]",1,[1.1823000000002821],0,77,77,77,1,defiant,d,1,Hit
,,,,,,,5,824852,2021-12-27_17h26.25.737,MemLear_ses-01_part-02_label-nBack,2020.1.3,Win32,60,"[""l""]",1,[0.9907000000001744],0,78,78,78,1,shotgun,l,0,NoHit
,,,,,,,5,824852,2021-12-27_17h26.25.737,MemLear_ses-01_part-02_label-nBack,2020.1.3,Win32,60,"[""l""]",1,[0.9474999999999909],0,79,79,79,1,revolt,l,0,NoHit
,,,,,,,5,824852,2021-12-27_17h26.25.737,MemLear_ses-01_part-02_label-nBack,2020.1.3,Win32,60,"[""l""]",1,[1.0378000000002885],0,80,80,80,1,unhappy,l,0,NoHit
,,,,,,,5,824852,2021-12-27_17h26.25.737,MemLear_ses-01_part-02_label-nBack,2020.1.3,Win32,60,"[""d""]",1,[0.8511000000000877],0,81,81,81,1,revolt,d,1,Hit
,,,,,,,5,824852,2021-12-27_17h26.25.737,MemLear_ses-01_part-02_label-nBack,2020.1.3,Win32,60,"[""l""]",1,[0.7676999999997349],0,82,82,82,1,car,l,0,NoHit
,,,,,,,5,824852,2021-12-27_17h26.25.737,MemLear_ses-01_part-02_label-nBack,2020.1.3,Win32,60,"[""l""]",1,[1.1132000000002051],0,83,83,83,1,fight,l,0,NoHit
,,,,,,,5,824852,2021-12-27_17h26.25.737,MemLear_ses-01_part-02_label-nBack,2020.1.3,Win32,60,"[""l""]",1,[0.890500000000003],0,84,84,84,1,obsession,l,0,NoHit
,,,,,,,5,824852,2021-12-27_17h26.25.737,MemLear_ses-01_part-02_label-nBack,2020.1.3,Win32,60,"[""l""]",0,[0.974000000000018],0,85,85,85,1,obsession,d,1,Hit
,,,,,,,5,824852,2021-12-27_17h26.25.737,MemLear_ses-01_part-02_label-nBack,2020.1.3,Win32,60,"[""l""]",1,[0.8243999999999119],0,86,86,86,1,messy,l,0,NoHit
,,,,,,,5,824852,2021-12-27_17h26.25.737,MemLear_ses-01_part-02_label-nBack,2020.1.3,Win32,60,"[""l""]",1,[1.1127999999998224],0,87,87,87,1,anger,l,0,NoHit
,,,,,,,5,824852,2021-12-27_17h26.25.737,MemLear_ses-01_part-02_label-nBack,2020.1.3,Win32,60,"[""l""]",1,[1.2129999999999939],0,88,88,88,1,exercise,l,0,NoHit
,,,,,,,5,824852,2021-12-27_17h26.25.737,MemLear_ses-01_part-02_label-nBack,2020.1.3,Win32,60,"[""d""]",1,[1.0398000000002696],0,89,89,89,1,anger,d,1,Hit
,,,,,,,5,824852,2021-12-27_17h26.25.737,MemLear_ses-01_part-02_label-nBack,2020.1.3,Win32,60,"[""l""]",1,[0.9163999999998964],0,90,90,90,1,suspicious,l,0,NoHit
,,,,,,,5,824852,2021-12-27_17h26.25.737,MemLear_ses-01_part-02_label-nBack,2020.1.3,Win32,60,"[""l""]",1,[1.0512000000001933],0,91,91,91,1,politeness,l,0,NoHit
,,,,,,,5,824852,2021-12-27_17h26.25.737,MemLear_ses-01_part-02_label-nBack,2020.1.3,Win32,60,"[""d""]",1,[0.7163999999999078],0,92,92,92,1,suspicious,d,1,Hit
,,,,,,,5,824852,2021-12-27_17h26.25.737,MemLear_ses-01_part-02_label-nBack,2020.1.3,Win32,60,"[""l""]",1,[0.8222999999998137],0,93,93,93,1,shark,l,0,NoHit
,,,,,,,5,824852,2021-12-27_17h26.25.737,MemLear_ses-01_part-02_label-nBack,2020.1.3,Win32,60,"[""l""]",1,[1.6208999999998923],0,94,94,94,1,detest,l,0,NoHit
,,,,,,,5,824852,2021-12-27_17h26.25.737,MemLear_ses-01_part-02_label-nBack,2020.1.3,Win32,60,"[""d""]",1,[1.0287000000001854],0,95,95,95,1,shark,d,1,Hit
,,,,,,,5,824852,2021-12-27_17h26.25.737,MemLear_ses-01_part-02_label-nBack,2020.1.3,Win32,60,"[""l""]",1,[0.7296000000000902],0,96,96,96,1,cash,l,0,NoHit
,,,,,,,5,824852,2021-12-27_17h26.25.737,MemLear_ses-01_part-02_label-nBack,2020.1.3,Win32,60,"[""l""]",1,[0.8023999999999205],0,97,97,97,1,cancer,l,0,NoHit
,,,,,,,5,824852,2021-12-27_17h26.25.737,MemLear_ses-01_part-02_label-nBack,2020.1.3,Win32,60,"[""l""]",1,[0.7832000000001926],0,98,98,98,1,pistol,l,0,NoHit
,,,,,,,5,824852,2021-12-27_17h26.25.737,MemLear_ses-01_part-02_label-nBack,2020.1.3,Win32,60,"[""d""]",1,[0.8499999999999943],0,99,99,99,1,cancer,d,1,Hit
