instructions_loop.thisRepN,instructions_loop.thisTrialN,instructions_loop.thisN,instructions_loop.thisIndex,instructions_loop.ran,text1,text2,text3,participant,Expra Code,date,expName,psychopyVersion,OS,frameRate,recog_resp.keys,recog_resp.rt,conf_resp.keys,conf_resp.rt,recog_loop.thisRepN,recog_loop.thisTrialN,recog_loop.thisN,recog_loop.thisIndex,recog_loop.ran,images,modal_categ,type,corr_ans,order,key_resp_break.keys,key_resp_break.rt,list_loop.thisRepN,list_loop.thisTrialN,list_loop.thisN,list_loop.thisIndex,list_loop.ran,recog_list
0,0,0,0,1,Welcome to the last phase of this experiment!,.,Please press the space bar to continue,8,478552,2022-01-13_17h51.03.881,MemLear_ses-01_part-02_label-phase2,2020.1.3,Win32,60,,,,,,,,,,,,,,,,,,,,,,
0,1,1,1,1,.,"In this phase, you will see some objects. 

For each object, you should indicate whether you have seen it before during the experiment.

Press LEFT ARROW for YES
Press RIGHT ARROW for NO

",Please press the space bar to continue ,8,478552,2022-01-13_17h51.03.881,MemLear_ses-01_part-02_label-phase2,2020.1.3,Win32,60,,,,,,,,,,,,,,,,,,,,,,
,,,,,,,,8,478552,2022-01-13_17h51.03.881,MemLear_ses-01_part-02_label-phase2,2020.1.3,Win32,60,right,2.9831,2,4.2278,0,0,0,18,1,stimuli/objects/wateringcan.jpg,Hand labour tool & accessory,new,right,19,,,,,,,,
,,,,,,,,8,478552,2022-01-13_17h51.03.881,MemLear_ses-01_part-02_label-phase2,2020.1.3,Win32,60,left,3.29,4,2.417,0,1,1,11,1,stimuli/objects/badmintonracket.jpg,Outdoor activity & sport item,old,left,12,,,,,,,,
,,,,,,,,8,478552,2022-01-13_17h51.03.881,MemLear_ses-01_part-02_label-phase2,2020.1.3,Win32,60,right,4.9805,1,1.4734,0,2,2,20,1,stimuli/objects/sledgehammer.jpg,Hand labour tool & accessory,old,left,21,,,,,,,,
,,,,,,,,8,478552,2022-01-13_17h51.03.881,MemLear_ses-01_part-02_label-phase2,2020.1.3,Win32,60,right,1.2794,3,1.6008,0,3,3,84,1,stimuli/objects/toyhardhat.jpg,Hand labour tool & accessory,new,right,85,,,,,,,,
,,,,,,,,8,478552,2022-01-13_17h51.03.881,MemLear_ses-01_part-02_label-phase2,2020.1.3,Win32,60,left,2.0242,3,1.6713,0,4,4,4,1,stimuli/objects/icebucket.jpg,Kitchen & utensil,old,left,5,,,,,,,,
,,,,,,,,8,478552,2022-01-13_17h51.03.881,MemLear_ses-01_part-02_label-phase2,2020.1.3,Win32,60,left,1.4594,3,0.7017,0,5,5,68,1,stimuli/objects/videocamera01a.jpg,Electronic device & accessory,old,left,69,,,,,,,,
,,,,,,,,8,478552,2022-01-13_17h51.03.881,MemLear_ses-01_part-02_label-phase2,2020.1.3,Win32,60,right,1.2672,2,1.0049,0,6,6,42,1,stimuli/objects/swissarmyknife01a.jpg,Hand labour tool & accessory,new,right,43,,,,,,,,
,,,,,,,,8,478552,2022-01-13_17h51.03.881,MemLear_ses-01_part-02_label-phase2,2020.1.3,Win32,60,right,1.7218,3,1.3649,0,7,7,65,1,stimuli/objects/flooringstapler.jpg,Hand labour tool & accessory,new,right,66,,,,,,,,
,,,,,,,,8,478552,2022-01-13_17h51.03.881,MemLear_ses-01_part-02_label-phase2,2020.1.3,Win32,60,left,1.5241,4,0.9169,0,8,8,53,1,stimuli/objects/cheeseknife01.jpg,Hand labour tool & accessory,old,left,54,,,,,,,,
,,,,,,,,8,478552,2022-01-13_17h51.03.881,MemLear_ses-01_part-02_label-phase2,2020.1.3,Win32,60,left,1.1695,4,0.6221,0,9,9,17,1,stimuli/objects/avcable.jpg,Electronic device & accessory,old,left,18,,,,,,,,
,,,,,,,,8,478552,2022-01-13_17h51.03.881,MemLear_ses-01_part-02_label-phase2,2020.1.3,Win32,60,right,1.2933,2,0.4023,0,10,10,19,1,stimuli/objects/gps.jpg,Electronic device & accessory,new,right,20,,,,,,,,
,,,,,,,,8,478552,2022-01-13_17h51.03.881,MemLear_ses-01_part-02_label-phase2,2020.1.3,Win32,60,right,2.287,2,1.5132,0,11,11,5,1,stimuli/objects/remotecontrol04.jpg,Electronic device & accessory,new,right,6,,,,,,,,
,,,,,,,,8,478552,2022-01-13_17h51.03.881,MemLear_ses-01_part-02_label-phase2,2020.1.3,Win32,60,left,1.3071,3,0.9438,0,12,12,60,1,stimuli/objects/adjustablewrench01b.jpg,Hand labour tool & accessory,old,left,61,,,,,,,,
,,,,,,,,8,478552,2022-01-13_17h51.03.881,MemLear_ses-01_part-02_label-phase2,2020.1.3,Win32,60,left,1.8262,2,2.2783,0,13,13,32,1,stimuli/objects/needlenosepliers01.jpg,Hand labour tool & accessory,new,right,33,,,,,,,,
,,,,,,,,8,478552,2022-01-13_17h51.03.881,MemLear_ses-01_part-02_label-phase2,2020.1.3,Win32,60,left,1.1927,3,0.9959,0,14,14,48,1,stimuli/objects/bowl02a.jpg,Kitchen & utensil,old,left,49,,,,,,,,
,,,,,,,,8,478552,2022-01-13_17h51.03.881,MemLear_ses-01_part-02_label-phase2,2020.1.3,Win32,60,right,1.4903,3,1.5602,0,15,15,87,1,stimuli/objects/basketball01.jpg,Outdoor activity & sport item,new,right,88,,,,,,,,
,,,,,,,,8,478552,2022-01-13_17h51.03.881,MemLear_ses-01_part-02_label-phase2,2020.1.3,Win32,60,left,1.3687,4,0.44,0,16,16,66,1,stimuli/objects/snowboard.jpg,Outdoor activity & sport item,old,left,67,,,,,,,,
,,,,,,,,8,478552,2022-01-13_17h51.03.881,MemLear_ses-01_part-02_label-phase2,2020.1.3,Win32,60,left,0.9701,4,0.2996,0,17,17,37,1,stimuli/objects/beachumbrella01.jpg,Outdoor activity & sport item,old,left,38,,,,,,,,
,,,,,,,,8,478552,2022-01-13_17h51.03.881,MemLear_ses-01_part-02_label-phase2,2020.1.3,Win32,60,right,1.1949,2,0.6416,0,18,18,25,1,stimuli/objects/poolnet.jpg,Outdoor activity & sport item,new,right,26,,,,,,,,
,,,,,,,,8,478552,2022-01-13_17h51.03.881,MemLear_ses-01_part-02_label-phase2,2020.1.3,Win32,60,left,0.871,4,0.3003,0,19,19,74,1,stimuli/objects/podium.jpg,Outdoor activity & sport item,old,left,75,,,,,,,,
,,,,,,,,8,478552,2022-01-13_17h51.03.881,MemLear_ses-01_part-02_label-phase2,2020.1.3,Win32,60,right,0.9822,3,1.1999,0,20,20,83,1,stimuli/objects/floodlight.jpg,Hand labour tool & accessory,new,right,84,,,,,,,,
,,,,,,,,8,478552,2022-01-13_17h51.03.881,MemLear_ses-01_part-02_label-phase2,2020.1.3,Win32,60,left,1.0463,2,0.313,0,21,21,67,1,stimuli/objects/pot01.jpg,Kitchen & utensil,old,left,68,,,,,,,,
,,,,,,,,8,478552,2022-01-13_17h51.03.881,MemLear_ses-01_part-02_label-phase2,2020.1.3,Win32,60,right,0.9868,2,0.2923,0,22,22,34,1,stimuli/objects/skiboot01a.jpg,Outdoor activity & sport item,new,right,35,,,,,,,,
,,,,,,,,8,478552,2022-01-13_17h51.03.881,MemLear_ses-01_part-02_label-phase2,2020.1.3,Win32,60,right,1.0656,3,0.4062,0,23,23,22,1,stimuli/objects/football.jpg,Outdoor activity & sport item,new,right,23,,,,,,,,
,,,,,,,,8,478552,2022-01-13_17h51.03.881,MemLear_ses-01_part-02_label-phase2,2020.1.3,Win32,60,right,1.4307,2,0.4039,0,24,24,21,1,stimuli/objects/sewingmachine01a.jpg,Hand labour tool & accessory,new,right,22,,,,,,,,
,,,,,,,,8,478552,2022-01-13_17h51.03.881,MemLear_ses-01_part-02_label-phase2,2020.1.3,Win32,60,left,0.9217,3,0.9797,0,25,25,49,1,stimuli/objects/measuringtape01.jpg,Hand labour tool & accessory,old,left,50,,,,,,,,
,,,,,,,,8,478552,2022-01-13_17h51.03.881,MemLear_ses-01_part-02_label-phase2,2020.1.3,Win32,60,left,1.1982,3,0.4103,0,26,26,38,1,stimuli/objects/nailgun.jpg,Hand labour tool & accessory,old,left,39,,,,,,,,
,,,,,,,,8,478552,2022-01-13_17h51.03.881,MemLear_ses-01_part-02_label-phase2,2020.1.3,Win32,60,left,1.0032,4,0.3238,0,27,27,41,1,stimuli/objects/teapot.jpg,Kitchen & utensil,old,left,42,,,,,,,,
,,,,,,,,8,478552,2022-01-13_17h51.03.881,MemLear_ses-01_part-02_label-phase2,2020.1.3,Win32,60,right,3.1176,1,0.3471,0,28,28,56,1,stimuli/objects/knife03.jpg,Kitchen & utensil,new,right,57,,,,,,,,
,,,,,,,,8,478552,2022-01-13_17h51.03.881,MemLear_ses-01_part-02_label-phase2,2020.1.3,Win32,60,left,1.0072,4,0.2426,0,29,29,63,1,stimuli/objects/file.jpg,Hand labour tool & accessory,old,left,64,,,,,,,,
,,,,,,,,8,478552,2022-01-13_17h51.03.881,MemLear_ses-01_part-02_label-phase2,2020.1.3,Win32,60,left,0.8688,3,0.6465,0,30,30,51,1,stimuli/objects/jackhammer.jpg,Hand labour tool & accessory,old,left,52,,,,,,,,
,,,,,,,,8,478552,2022-01-13_17h51.03.881,MemLear_ses-01_part-02_label-phase2,2020.1.3,Win32,60,left,0.8529,3,0.8315,0,31,31,47,1,stimuli/objects/monitor.jpg,Electronic device & accessory,old,left,48,,,,,,,,
,,,,,,,,8,478552,2022-01-13_17h51.03.881,MemLear_ses-01_part-02_label-phase2,2020.1.3,Win32,60,right,1.0581,2,0.419,0,32,32,45,1,stimuli/objects/lifejacket.jpg,Outdoor activity & sport item,new,right,46,,,,,,,,
,,,,,,,,8,478552,2022-01-13_17h51.03.881,MemLear_ses-01_part-02_label-phase2,2020.1.3,Win32,60,left,1.1592,3,0.6177,0,33,33,26,1,stimuli/objects/pickaxe02.jpg,Hand labour tool & accessory,old,left,27,,,,,,,,
,,,,,,,,8,478552,2022-01-13_17h51.03.881,MemLear_ses-01_part-02_label-phase2,2020.1.3,Win32,60,left,0.8753,4,0.312,0,34,34,31,1,stimuli/objects/sportbag.jpg,Outdoor activity & sport item,old,left,32,,,,,,,,
,,,,,,,,8,478552,2022-01-13_17h51.03.881,MemLear_ses-01_part-02_label-phase2,2020.1.3,Win32,60,left,0.7619,4,0.3431,0,35,35,2,1,stimuli/objects/basketballhoop01.jpg,Outdoor activity & sport item,old,left,3,,,,,,,,
,,,,,,,,8,478552,2022-01-13_17h51.03.881,MemLear_ses-01_part-02_label-phase2,2020.1.3,Win32,60,right,2.6139,2,0.323,0,36,36,70,1,stimuli/objects/aircompressor.jpg,Hand labour tool & accessory,new,right,71,,,,,,,,
,,,,,,,,8,478552,2022-01-13_17h51.03.881,MemLear_ses-01_part-02_label-phase2,2020.1.3,Win32,60,left,1.4969,3,0.5761,0,37,37,10,1,stimuli/objects/cleaver01.jpg,Kitchen & utensil,old,left,11,,,,,,,,
,,,,,,,,8,478552,2022-01-13_17h51.03.881,MemLear_ses-01_part-02_label-phase2,2020.1.3,Win32,60,left,0.9859,4,0.35,0,38,38,55,1,stimuli/objects/skigoggles01.jpg,Outdoor activity & sport item,old,left,56,,,,,,,,
,,,,,,,,8,478552,2022-01-13_17h51.03.881,MemLear_ses-01_part-02_label-phase2,2020.1.3,Win32,60,left,0.7162,4,0.3302,0,39,39,35,1,stimuli/objects/baseball01a.jpg,Outdoor activity & sport item,old,left,36,,,,,,,,
,,,,,,,,8,478552,2022-01-13_17h51.03.881,MemLear_ses-01_part-02_label-phase2,2020.1.3,Win32,60,left,0.7141,4,0.2371,0,40,40,79,1,stimuli/objects/handgripper.jpg,Outdoor activity & sport item,old,left,80,,,,,,,,
,,,,,,,,8,478552,2022-01-13_17h51.03.881,MemLear_ses-01_part-02_label-phase2,2020.1.3,Win32,60,right,0.9157,3,0.2832,0,41,41,54,1,stimuli/objects/parachute.jpg,Outdoor activity & sport item,new,right,55,,,,,,,,
,,,,,,,,8,478552,2022-01-13_17h51.03.881,MemLear_ses-01_part-02_label-phase2,2020.1.3,Win32,60,left,0.9627,3,0.9564,0,42,42,76,1,stimuli/objects/drillbit03a.jpg,Hand labour tool & accessory,old,left,77,,,,,,,,
,,,,,,,,8,478552,2022-01-13_17h51.03.881,MemLear_ses-01_part-02_label-phase2,2020.1.3,Win32,60,left,0.9231,4,0.2534,0,43,43,69,1,stimuli/objects/gavel.jpg,Hand labour tool & accessory,old,left,70,,,,,,,,
,,,,,,,,8,478552,2022-01-13_17h51.03.881,MemLear_ses-01_part-02_label-phase2,2020.1.3,Win32,60,right,1.9864,3,0.5281,0,44,44,12,1,stimuli/objects/hockeygoalieglove.jpg,Outdoor activity & sport item,old,left,13,,,,,,,,
,,,,,,,,8,478552,2022-01-13_17h51.03.881,MemLear_ses-01_part-02_label-phase2,2020.1.3,Win32,60,left,1.0286,3,1.0075,0,45,45,8,1,stimuli/objects/loppingshears.jpg,Hand labour tool & accessory,old,left,9,,,,,,,,
,,,,,,,,8,478552,2022-01-13_17h51.03.881,MemLear_ses-01_part-02_label-phase2,2020.1.3,Win32,60,right,1.1828,3,0.5988,0,46,46,6,1,stimuli/objects/skihelmet01.jpg,Outdoor activity & sport item,new,right,7,,,,,,,,
,,,,,,,,8,478552,2022-01-13_17h51.03.881,MemLear_ses-01_part-02_label-phase2,2020.1.3,Win32,60,right,2.8717,1,0.8074,0,47,47,44,1,stimuli/objects/handrake01a.jpg,Hand labour tool & accessory,new,right,45,,,,,,,,
,,,,,,,,8,478552,2022-01-13_17h51.03.881,MemLear_ses-01_part-02_label-phase2,2020.1.3,Win32,60,left,1.2189,3,0.3454,0,48,48,88,1,stimuli/objects/solderingwire.jpg,Hand labour tool & accessory,old,left,89,,,,,,,,
,,,,,,,,8,478552,2022-01-13_17h51.03.881,MemLear_ses-01_part-02_label-phase2,2020.1.3,Win32,60,left,1.2653,4,0.262,0,49,49,0,1,stimuli/objects/skipole.jpg,Outdoor activity & sport item,old,left,1,,,,,,,,
,,,,,,,,8,478552,2022-01-13_17h51.03.881,MemLear_ses-01_part-02_label-phase2,2020.1.3,Win32,60,right,0.9296,3,1.0149,0,50,50,33,1,stimuli/objects/patioumbrella.jpg,Outdoor activity & sport item,new,right,34,,,,,,,,
,,,,,,,,8,478552,2022-01-13_17h51.03.881,MemLear_ses-01_part-02_label-phase2,2020.1.3,Win32,60,left,1.1617,4,0.187,0,51,51,30,1,stimuli/objects/wheel01.jpg,Hand labour tool & accessory,old,left,31,,,,,,,,
,,,,,,,,8,478552,2022-01-13_17h51.03.881,MemLear_ses-01_part-02_label-phase2,2020.1.3,Win32,60,left,1.4965,3,0.3448,0,52,52,36,1,stimuli/objects/jumpercables.jpg,Hand labour tool & accessory,old,left,37,,,,,,,,
,,,,,,,,8,478552,2022-01-13_17h51.03.881,MemLear_ses-01_part-02_label-phase2,2020.1.3,Win32,60,right,4.664,1,0.3346,0,53,53,14,1,stimuli/objects/punchingbag.jpg,Outdoor activity & sport item,new,right,15,,,,,,,,
,,,,,,,,8,478552,2022-01-13_17h51.03.881,MemLear_ses-01_part-02_label-phase2,2020.1.3,Win32,60,right,1.1926,2,0.2212,0,54,54,81,1,stimuli/objects/spatula03.jpg,Kitchen & utensil,new,right,82,,,,,,,,
,,,,,,,,8,478552,2022-01-13_17h51.03.881,MemLear_ses-01_part-02_label-phase2,2020.1.3,Win32,60,left,0.7444,4,0.3005,0,55,55,9,1,stimuli/objects/gymnasticring.jpg,Outdoor activity & sport item,old,left,10,,,,,,,,
,,,,,,,,8,478552,2022-01-13_17h51.03.881,MemLear_ses-01_part-02_label-phase2,2020.1.3,Win32,60,left,0.9268,4,0.2229,0,56,56,77,1,stimuli/objects/mitresaw.jpg,Hand labour tool & accessory,old,left,78,,,,,,,,
,,,,,,,,8,478552,2022-01-13_17h51.03.881,MemLear_ses-01_part-02_label-phase2,2020.1.3,Win32,60,left,0.628,4,0.1676,0,57,57,39,1,stimuli/objects/tennisball01b.jpg,Outdoor activity & sport item,old,left,40,,,,,,,,
,,,,,,,,8,478552,2022-01-13_17h51.03.881,MemLear_ses-01_part-02_label-phase2,2020.1.3,Win32,60,left,0.754,2,0.2468,0,58,58,71,1,stimuli/objects/bikehelmet.jpg,Outdoor activity & sport item,old,left,72,,,,,,,,
,,,,,,,,8,478552,2022-01-13_17h51.03.881,MemLear_ses-01_part-02_label-phase2,2020.1.3,Win32,60,right,1.5374,3,1.126,0,59,59,43,1,stimuli/objects/skateboard.jpg,Outdoor activity & sport item,new,right,44,,,,,,,,
,,,,,,,,8,478552,2022-01-13_17h51.03.881,MemLear_ses-01_part-02_label-phase2,2020.1.3,Win32,60,right,1.6524,2,0.6302,0,60,60,62,1,stimuli/objects/paintbrush01.jpg,Hand labour tool & accessory,new,right,63,,,,,,,,
,,,,,,,,8,478552,2022-01-13_17h51.03.881,MemLear_ses-01_part-02_label-phase2,2020.1.3,Win32,60,right,2.2134,2,0.1329,0,61,61,89,1,stimuli/objects/downhillski.jpg,Outdoor activity & sport item,new,right,90,,,,,,,,
,,,,,,,,8,478552,2022-01-13_17h51.03.881,MemLear_ses-01_part-02_label-phase2,2020.1.3,Win32,60,left,0.8333,4,0.281,0,62,62,59,1,stimuli/objects/volleyball.jpg,Outdoor activity & sport item,old,left,60,,,,,,,,
,,,,,,,,8,478552,2022-01-13_17h51.03.881,MemLear_ses-01_part-02_label-phase2,2020.1.3,Win32,60,left,0.9452,4,0.2895,0,63,63,23,1,stimuli/objects/carjack.jpg,Hand labour tool & accessory,old,left,24,,,,,,,,
,,,,,,,,8,478552,2022-01-13_17h51.03.881,MemLear_ses-01_part-02_label-phase2,2020.1.3,Win32,60,left,0.835,4,0.2084,0,64,64,29,1,stimuli/objects/anchor.jpg,Outdoor activity & sport item,old,left,30,,,,,,,,
,,,,,,,,8,478552,2022-01-13_17h51.03.881,MemLear_ses-01_part-02_label-phase2,2020.1.3,Win32,60,left,0.7413,4,0.2472,0,65,65,80,1,stimuli/objects/scanner.jpg,Electronic device & accessory,old,left,81,,,,,,,,
,,,,,,,,8,478552,2022-01-13_17h51.03.881,MemLear_ses-01_part-02_label-phase2,2020.1.3,Win32,60,left,0.7097,4,0.2254,0,66,66,27,1,stimuli/objects/staplegun.jpg,Hand labour tool & accessory,old,left,28,,,,,,,,
,,,,,,,,8,478552,2022-01-13_17h51.03.881,MemLear_ses-01_part-02_label-phase2,2020.1.3,Win32,60,right,1.2757,2,0.8292,0,67,67,1,1,stimuli/objects/backpack01a.jpg,Outdoor activity & sport item,old,left,2,,,,,,,,
,,,,,,,,8,478552,2022-01-13_17h51.03.881,MemLear_ses-01_part-02_label-phase2,2020.1.3,Win32,60,left,0.8812,4,0.1719,0,68,68,40,1,stimuli/objects/caulking.jpg,Hand labour tool & accessory,old,left,41,,,,,,,,
,,,,,,,,8,478552,2022-01-13_17h51.03.881,MemLear_ses-01_part-02_label-phase2,2020.1.3,Win32,60,left,0.7599,4,0.172,0,69,69,57,1,stimuli/objects/umbrella04.jpg,Outdoor activity & sport item,old,left,58,,,,,,,,
,,,,,,,,8,478552,2022-01-13_17h51.03.881,MemLear_ses-01_part-02_label-phase2,2020.1.3,Win32,60,left,0.7783,4,0.0816,0,70,70,13,1,stimuli/objects/bikelock.jpg,Outdoor activity & sport item,old,left,14,,,,,,,,
,,,,,,,,8,478552,2022-01-13_17h51.03.881,MemLear_ses-01_part-02_label-phase2,2020.1.3,Win32,60,left,1.4362,2,0.0828,0,71,71,58,1,stimuli/objects/hedgeshears.jpg,Hand labour tool & accessory,old,left,59,,,,,,,,
,,,,,,,,8,478552,2022-01-13_17h51.03.881,MemLear_ses-01_part-02_label-phase2,2020.1.3,Win32,60,left,0.9736,1,0.3405,0,72,72,15,1,stimuli/objects/propanetank01.jpg,Outdoor activity & sport item,old,left,16,,,,,,,,
,,,,,,,,8,478552,2022-01-13_17h51.03.881,MemLear_ses-01_part-02_label-phase2,2020.1.3,Win32,60,left,0.8433,3,0.2566,0,73,73,52,1,stimuli/objects/shopvac.jpg,Hand labour tool & accessory,old,left,53,,,,,,,,
,,,,,,,,8,478552,2022-01-13_17h51.03.881,MemLear_ses-01_part-02_label-phase2,2020.1.3,Win32,60,left,1.0036,2,0.256,0,74,74,7,1,stimuli/objects/mallet01b.jpg,Hand labour tool & accessory,old,left,8,,,,,,,,
,,,,,,,,8,478552,2022-01-13_17h51.03.881,MemLear_ses-01_part-02_label-phase2,2020.1.3,Win32,60,left,1.0959,4,2.4914,0,75,75,82,1,stimuli/objects/cclamp.jpg,Hand labour tool & accessory,old,left,83,,,,,,,,
,,,,,,,,8,478552,2022-01-13_17h51.03.881,MemLear_ses-01_part-02_label-phase2,2020.1.3,Win32,60,right,1.3757,2,1.0067,0,76,76,28,1,stimuli/objects/shovel01.jpg,Hand labour tool & accessory,new,right,29,,,,,,,,
,,,,,,,,8,478552,2022-01-13_17h51.03.881,MemLear_ses-01_part-02_label-phase2,2020.1.3,Win32,60,left,0.9291,3,0.4904,0,77,77,75,1,stimuli/objects/metalscissors.jpg,Hand labour tool & accessory,old,left,76,,,,,,,,
,,,,,,,,8,478552,2022-01-13_17h51.03.881,MemLear_ses-01_part-02_label-phase2,2020.1.3,Win32,60,left,0.8836,4,0.1688,0,78,78,24,1,stimuli/objects/tennisracket.jpg,Outdoor activity & sport item,old,left,25,,,,,,,,
,,,,,,,,8,478552,2022-01-13_17h51.03.881,MemLear_ses-01_part-02_label-phase2,2020.1.3,Win32,60,right,1.2036,2,1.8039,0,79,79,86,1,stimuli/objects/waterbottleholder.jpg,Outdoor activity & sport item,new,right,87,,,,,,,,
,,,,,,,,8,478552,2022-01-13_17h51.03.881,MemLear_ses-01_part-02_label-phase2,2020.1.3,Win32,60,right,1.1404,3,0.5369,0,80,80,78,1,stimuli/objects/paintroller01.jpg,Hand labour tool & accessory,new,right,79,,,,,,,,
,,,,,,,,8,478552,2022-01-13_17h51.03.881,MemLear_ses-01_part-02_label-phase2,2020.1.3,Win32,60,left,0.7596,4,0.2614,0,81,81,61,1,stimuli/objects/swing.jpg,Outdoor activity & sport item,old,left,62,,,,,,,,
,,,,,,,,8,478552,2022-01-13_17h51.03.881,MemLear_ses-01_part-02_label-phase2,2020.1.3,Win32,60,right,3.0262,1,1.779,0,82,82,46,1,stimuli/objects/gardenshears01a.jpg,Hand labour tool & accessory,old,left,47,,,,,,,,
,,,,,,,,8,478552,2022-01-13_17h51.03.881,MemLear_ses-01_part-02_label-phase2,2020.1.3,Win32,60,left,1.3048,3,0.2609,0,83,83,64,1,stimuli/objects/walkman.jpg,Electronic device & accessory,old,left,65,,,,,,,,
,,,,,,,,8,478552,2022-01-13_17h51.03.881,MemLear_ses-01_part-02_label-phase2,2020.1.3,Win32,60,left,0.7832,3,0.849,0,84,84,72,1,stimuli/objects/cellphone.jpg,Electronic device & accessory,old,left,73,,,,,,,,
,,,,,,,,8,478552,2022-01-13_17h51.03.881,MemLear_ses-01_part-02_label-phase2,2020.1.3,Win32,60,right,3.7132,2,0.3436,0,85,85,85,1,stimuli/objects/toyhockeystick01.jpg,Outdoor activity & sport item,old,left,86,,,,,,,,
,,,,,,,,8,478552,2022-01-13_17h51.03.881,MemLear_ses-01_part-02_label-phase2,2020.1.3,Win32,60,left,0.7867,4,0.1082,0,86,86,16,1,stimuli/objects/securitycamera.jpg,Electronic device & accessory,old,left,17,,,,,,,,
,,,,,,,,8,478552,2022-01-13_17h51.03.881,MemLear_ses-01_part-02_label-phase2,2020.1.3,Win32,60,left,1.174,3,0.1743,0,87,87,50,1,stimuli/objects/kneepad01c.jpg,Outdoor activity & sport item,old,left,51,,,,,,,,
,,,,,,,,8,478552,2022-01-13_17h51.03.881,MemLear_ses-01_part-02_label-phase2,2020.1.3,Win32,60,right,1.2189,3,2.2038,0,88,88,3,1,stimuli/objects/mug01.jpg,Kitchen & utensil,new,right,4,,,,,,,,
,,,,,,,,8,478552,2022-01-13_17h51.03.881,MemLear_ses-01_part-02_label-phase2,2020.1.3,Win32,60,left,0.956,4,0.1138,0,89,89,73,1,stimuli/objects/magneticcompass.jpg,Outdoor activity & sport item,old,left,74,,,,,,,,
,,,,,,,,8,478552,2022-01-13_17h51.03.881,MemLear_ses-01_part-02_label-phase2,2020.1.3,Win32,60,,,,,,,,,,,,,,,space,2.407,0,0,0,0,1,condition_files/ImagesforRecog1_1.csv
,,,,,,,,8,478552,2022-01-13_17h51.03.881,MemLear_ses-01_part-02_label-phase2,2020.1.3,Win32,60,left,1.0495,4,0.282,0,0,0,72,1,stimuli/objects/gastank.jpg,Hand labour tool & accessory,old,left,163,,,,,,,,
,,,,,,,,8,478552,2022-01-13_17h51.03.881,MemLear_ses-01_part-02_label-phase2,2020.1.3,Win32,60,left,0.755,4,0.8174,0,1,1,60,1,stimuli/objects/jumpingjack.jpg,Hand labour tool & accessory,old,left,151,,,,,,,,
,,,,,,,,8,478552,2022-01-13_17h51.03.881,MemLear_ses-01_part-02_label-phase2,2020.1.3,Win32,60,left,0.7475,4,0.1853,0,2,2,11,1,stimuli/objects/coffeemachine.jpg,Electronic device & accessory,old,left,102,,,,,,,,
,,,,,,,,8,478552,2022-01-13_17h51.03.881,MemLear_ses-01_part-02_label-phase2,2020.1.3,Win32,60,left,1.2585,3,1.3751,0,3,3,34,1,stimuli/objects/alarmsystem.jpg,Electronic device & accessory,old,left,125,,,,,,,,
,,,,,,,,8,478552,2022-01-13_17h51.03.881,MemLear_ses-01_part-02_label-phase2,2020.1.3,Win32,60,left,1.2978,2,0.2432,0,4,4,30,1,stimuli/objects/baseballglove.jpg,Outdoor activity & sport item,new,right,121,,,,,,,,
,,,,,,,,8,478552,2022-01-13_17h51.03.881,MemLear_ses-01_part-02_label-phase2,2020.1.3,Win32,60,right,1.7307,2,0.464,0,5,5,44,1,stimuli/objects/styrofoamcup.jpg,Kitchen & utensil,old,left,135,,,,,,,,
,,,,,,,,8,478552,2022-01-13_17h51.03.881,MemLear_ses-01_part-02_label-phase2,2020.1.3,Win32,60,left,0.8886,4,0.2417,0,6,6,32,1,stimuli/objects/footballhelmet.jpg,Outdoor activity & sport item,old,left,123,,,,,,,,
,,,,,,,,8,478552,2022-01-13_17h51.03.881,MemLear_ses-01_part-02_label-phase2,2020.1.3,Win32,60,right,3.5104,2,1.1561,0,7,7,73,1,stimuli/objects/snowbrush.jpg,Hand labour tool & accessory,new,right,164,,,,,,,,
,,,,,,,,8,478552,2022-01-13_17h51.03.881,MemLear_ses-01_part-02_label-phase2,2020.1.3,Win32,60,right,1.6699,3,0.7522,0,8,8,13,1,stimuli/objects/rope03.jpg,Hand labour tool & accessory,new,right,104,,,,,,,,
,,,,,,,,8,478552,2022-01-13_17h51.03.881,MemLear_ses-01_part-02_label-phase2,2020.1.3,Win32,60,left,0.8933,2,0.3623,0,9,9,26,1,stimuli/objects/blender.jpg,Kitchen & utensil,old,left,117,,,,,,,,
,,,,,,,,8,478552,2022-01-13_17h51.03.881,MemLear_ses-01_part-02_label-phase2,2020.1.3,Win32,60,left,1.2874,3,0.2993,0,10,10,42,1,stimuli/objects/boogieboard.jpg,Outdoor activity & sport item,old,left,133,,,,,,,,
,,,,,,,,8,478552,2022-01-13_17h51.03.881,MemLear_ses-01_part-02_label-phase2,2020.1.3,Win32,60,right,2.0079,2,0.7053,0,11,11,87,1,stimuli/objects/drill01b.jpg,Hand labour tool & accessory,new,right,178,,,,,,,,
,,,,,,,,8,478552,2022-01-13_17h51.03.881,MemLear_ses-01_part-02_label-phase2,2020.1.3,Win32,60,left,0.7661,4,0.2198,0,12,12,36,1,stimuli/objects/birdie.jpg,Outdoor activity & sport item,old,left,127,,,,,,,,
,,,,,,,,8,478552,2022-01-13_17h51.03.881,MemLear_ses-01_part-02_label-phase2,2020.1.3,Win32,60,left,1.1595,4,0.4792,0,13,13,57,1,stimuli/objects/bowlingball.jpg,Outdoor activity & sport item,old,left,148,,,,,,,,
,,,,,,,,8,478552,2022-01-13_17h51.03.881,MemLear_ses-01_part-02_label-phase2,2020.1.3,Win32,60,right,1.3138,3,0.5021,0,14,14,75,1,stimuli/objects/boatmotor.jpg,Outdoor activity & sport item,new,right,166,,,,,,,,
,,,,,,,,8,478552,2022-01-13_17h51.03.881,MemLear_ses-01_part-02_label-phase2,2020.1.3,Win32,60,left,0.896,3,0.6254,0,15,15,74,1,stimuli/objects/stepladder.jpg,Hand labour tool & accessory,old,left,165,,,,,,,,
,,,,,,,,8,478552,2022-01-13_17h51.03.881,MemLear_ses-01_part-02_label-phase2,2020.1.3,Win32,60,left,0.8198,4,0.2898,0,16,16,45,1,stimuli/objects/grater01a.jpg,Kitchen & utensil,old,left,136,,,,,,,,
,,,,,,,,8,478552,2022-01-13_17h51.03.881,MemLear_ses-01_part-02_label-phase2,2020.1.3,Win32,60,left,0.6977,3,0.2998,0,17,17,20,1,stimuli/objects/tray.jpg,Kitchen & utensil,old,left,111,,,,,,,,
,,,,,,,,8,478552,2022-01-13_17h51.03.881,MemLear_ses-01_part-02_label-phase2,2020.1.3,Win32,60,right,1.029,2,0.4727,0,18,18,31,1,stimuli/objects/ethernetcable02.jpg,Electronic device & accessory,new,right,122,,,,,,,,
,,,,,,,,8,478552,2022-01-13_17h51.03.881,MemLear_ses-01_part-02_label-phase2,2020.1.3,Win32,60,left,0.9833,3,0.1834,0,19,19,61,1,stimuli/objects/surfboard.jpg,Outdoor activity & sport item,old,left,152,,,,,,,,
,,,,,,,,8,478552,2022-01-13_17h51.03.881,MemLear_ses-01_part-02_label-phase2,2020.1.3,Win32,60,left,1.711,4,0.277,0,20,20,84,1,stimuli/objects/golfbag.jpg,Outdoor activity & sport item,old,left,175,,,,,,,,
,,,,,,,,8,478552,2022-01-13_17h51.03.881,MemLear_ses-01_part-02_label-phase2,2020.1.3,Win32,60,left,1.1061,3,0.2156,0,21,21,22,1,stimuli/objects/tablesaw.jpg,Hand labour tool & accessory,old,left,113,,,,,,,,
,,,,,,,,8,478552,2022-01-13_17h51.03.881,MemLear_ses-01_part-02_label-phase2,2020.1.3,Win32,60,left,1.0838,3,0.1886,0,22,22,85,1,stimuli/objects/hoe.jpg,Hand labour tool & accessory,old,left,176,,,,,,,,
,,,,,,,,8,478552,2022-01-13_17h51.03.881,MemLear_ses-01_part-02_label-phase2,2020.1.3,Win32,60,left,1.1521,3,0.5013,0,23,23,3,1,stimuli/objects/exercisemachine.jpg,Outdoor activity & sport item,old,left,94,,,,,,,,
,,,,,,,,8,478552,2022-01-13_17h51.03.881,MemLear_ses-01_part-02_label-phase2,2020.1.3,Win32,60,left,0.7584,3,1.708,0,24,24,27,1,stimuli/objects/fonduefork01.jpg,Kitchen & utensil,old,left,118,,,,,,,,
,,,,,,,,8,478552,2022-01-13_17h51.03.881,MemLear_ses-01_part-02_label-phase2,2020.1.3,Win32,60,left,0.9488,2,0.1556,0,25,25,71,1,stimuli/objects/bowrake.jpg,Hand labour tool & accessory,old,left,162,,,,,,,,
,,,,,,,,8,478552,2022-01-13_17h51.03.881,MemLear_ses-01_part-02_label-phase2,2020.1.3,Win32,60,right,1.1464,3,0.2469,0,26,26,21,1,stimuli/objects/battery02b.jpg,Electronic device & accessory,new,right,112,,,,,,,,
,,,,,,,,8,478552,2022-01-13_17h51.03.881,MemLear_ses-01_part-02_label-phase2,2020.1.3,Win32,60,left,0.7693,4,0.1489,0,27,27,12,1,stimuli/objects/swimgoggles.jpg,Outdoor activity & sport item,old,left,103,,,,,,,,
,,,,,,,,8,478552,2022-01-13_17h51.03.881,MemLear_ses-01_part-02_label-phase2,2020.1.3,Win32,60,right,1.4567,2,0.3649,0,28,28,83,1,stimuli/objects/potatomasher03b.jpg,Kitchen & utensil,new,right,174,,,,,,,,
,,,,,,,,8,478552,2022-01-13_17h51.03.881,MemLear_ses-01_part-02_label-phase2,2020.1.3,Win32,60,right,1.2504,2,0.2549,0,29,29,29,1,stimuli/objects/pipewrench.jpg,Hand labour tool & accessory,old,left,120,,,,,,,,
,,,,,,,,8,478552,2022-01-13_17h51.03.881,MemLear_ses-01_part-02_label-phase2,2020.1.3,Win32,60,left,0.9239,4,0.1544,0,30,30,55,1,stimuli/objects/puttyknife.jpg,Hand labour tool & accessory,old,left,146,,,,,,,,
,,,,,,,,8,478552,2022-01-13_17h51.03.881,MemLear_ses-01_part-02_label-phase2,2020.1.3,Win32,60,left,0.7145,4,0.3172,0,31,31,2,1,stimuli/objects/charcoalbarbecue.jpg,Outdoor activity & sport item,old,left,93,,,,,,,,
,,,,,,,,8,478552,2022-01-13_17h51.03.881,MemLear_ses-01_part-02_label-phase2,2020.1.3,Win32,60,left,2.1518,1,0.2348,0,32,32,48,1,stimuli/objects/hammer01.jpg,Hand labour tool & accessory,old,left,139,,,,,,,,
,,,,,,,,8,478552,2022-01-13_17h51.03.881,MemLear_ses-01_part-02_label-phase2,2020.1.3,Win32,60,left,1.1553,2,0.0974,0,33,33,40,1,stimuli/objects/leafblower01.jpg,Hand labour tool & accessory,old,left,131,,,,,,,,
,,,,,,,,8,478552,2022-01-13_17h51.03.881,MemLear_ses-01_part-02_label-phase2,2020.1.3,Win32,60,right,0.9831,2,0.4199,0,34,34,82,1,stimuli/objects/dolly01.jpg,Hand labour tool & accessory,new,right,173,,,,,,,,
,,,,,,,,8,478552,2022-01-13_17h51.03.881,MemLear_ses-01_part-02_label-phase2,2020.1.3,Win32,60,left,0.7772,4,0.1548,0,35,35,52,1,stimuli/objects/flashlight02b.jpg,Hand labour tool & accessory,old,left,143,,,,,,,,
,,,,,,,,8,478552,2022-01-13_17h51.03.881,MemLear_ses-01_part-02_label-phase2,2020.1.3,Win32,60,left,0.7179,4,0.1801,0,36,36,6,1,stimuli/objects/chandelier.jpg,Electronic device & accessory,old,left,97,,,,,,,,
,,,,,,,,8,478552,2022-01-13_17h51.03.881,MemLear_ses-01_part-02_label-phase2,2020.1.3,Win32,60,left,0.6025,4,0.2545,0,37,37,46,1,stimuli/objects/weight01.jpg,Outdoor activity & sport item,old,left,137,,,,,,,,
,,,,,,,,8,478552,2022-01-13_17h51.03.881,MemLear_ses-01_part-02_label-phase2,2020.1.3,Win32,60,left,0.7722,4,0.1213,0,38,38,50,1,stimuli/objects/reflector.jpg,Outdoor activity & sport item,old,left,141,,,,,,,,
,,,,,,,,8,478552,2022-01-13_17h51.03.881,MemLear_ses-01_part-02_label-phase2,2020.1.3,Win32,60,left,0.692,4,0.1382,0,39,39,51,1,stimuli/objects/bikepump01.jpg,Outdoor activity & sport item,old,left,142,,,,,,,,
,,,,,,,,8,478552,2022-01-13_17h51.03.881,MemLear_ses-01_part-02_label-phase2,2020.1.3,Win32,60,right,0.9181,3,0.2186,0,40,40,47,1,stimuli/objects/canoepaddle02.jpg,Outdoor activity & sport item,new,right,138,,,,,,,,
,,,,,,,,8,478552,2022-01-13_17h51.03.881,MemLear_ses-01_part-02_label-phase2,2020.1.3,Win32,60,right,1.3128,3,0.7228,0,41,41,64,1,stimuli/objects/ellipticalmachine.jpg,Outdoor activity & sport item,new,right,155,,,,,,,,
,,,,,,,,8,478552,2022-01-13_17h51.03.881,MemLear_ses-01_part-02_label-phase2,2020.1.3,Win32,60,right,0.9354,3,0.1385,0,42,42,65,1,stimuli/objects/oven.jpg,Kitchen & utensil,old,left,156,,,,,,,,
,,,,,,,,8,478552,2022-01-13_17h51.03.881,MemLear_ses-01_part-02_label-phase2,2020.1.3,Win32,60,left,0.9441,4,0.3242,0,43,43,80,1,stimuli/objects/solderingiron.jpg,Hand labour tool & accessory,old,left,171,,,,,,,,
,,,,,,,,8,478552,2022-01-13_17h51.03.881,MemLear_ses-01_part-02_label-phase2,2020.1.3,Win32,60,right,0.7798,3,0.1657,0,44,44,25,1,stimuli/objects/trampoline.jpg,Outdoor activity & sport item,new,right,116,,,,,,,,
,,,,,,,,8,478552,2022-01-13_17h51.03.881,MemLear_ses-01_part-02_label-phase2,2020.1.3,Win32,60,right,1.0204,3,0.5421,0,45,45,62,1,stimuli/objects/axe01.jpg,Hand labour tool & accessory,new,right,153,,,,,,,,
,,,,,,,,8,478552,2022-01-13_17h51.03.881,MemLear_ses-01_part-02_label-phase2,2020.1.3,Win32,60,right,2.4354,2,0.2597,0,46,46,59,1,stimuli/objects/boltcutter.jpg,Hand labour tool & accessory,new,right,150,,,,,,,,
,,,,,,,,8,478552,2022-01-13_17h51.03.881,MemLear_ses-01_part-02_label-phase2,2020.1.3,Win32,60,left,0.6857,4,0.9355,0,47,47,15,1,stimuli/objects/binoculars01b.jpg,Outdoor activity & sport item,old,left,106,,,,,,,,
,,,,,,,,8,478552,2022-01-13_17h51.03.881,MemLear_ses-01_part-02_label-phase2,2020.1.3,Win32,60,right,2.6135,2,0.8193,0,48,48,56,1,stimuli/objects/bucket02.jpg,Hand labour tool & accessory,old,left,147,,,,,,,,
,,,,,,,,8,478552,2022-01-13_17h51.03.881,MemLear_ses-01_part-02_label-phase2,2020.1.3,Win32,60,left,1.1229,1,0.5679,0,49,49,38,1,stimuli/objects/pliers02b.jpg,Hand labour tool & accessory,old,left,129,,,,,,,,
,,,,,,,,8,478552,2022-01-13_17h51.03.881,MemLear_ses-01_part-02_label-phase2,2020.1.3,Win32,60,right,0.9131,2,1.775,0,50,50,14,1,stimuli/objects/bicycle.jpg,Outdoor activity & sport item,old,left,105,,,,,,,,
,,,,,,,,8,478552,2022-01-13_17h51.03.881,MemLear_ses-01_part-02_label-phase2,2020.1.3,Win32,60,left,0.7846,3,0.4314,0,51,51,89,1,stimuli/objects/pylon01.jpg,Hand labour tool & accessory,old,left,180,,,,,,,,
,,,,,,,,8,478552,2022-01-13_17h51.03.881,MemLear_ses-01_part-02_label-phase2,2020.1.3,Win32,60,left,1.4006,3,0.9375,0,52,52,68,1,stimuli/objects/spotlight.jpg,Electronic device & accessory,old,left,159,,,,,,,,
,,,,,,,,8,478552,2022-01-13_17h51.03.881,MemLear_ses-01_part-02_label-phase2,2020.1.3,Win32,60,left,0.985,4,0.2872,0,53,53,69,1,stimuli/objects/golfball.jpg,Outdoor activity & sport item,old,left,160,,,,,,,,
,,,,,,,,8,478552,2022-01-13_17h51.03.881,MemLear_ses-01_part-02_label-phase2,2020.1.3,Win32,60,right,1.1313,3,0.8036,0,54,54,81,1,stimuli/objects/kite.jpg,Outdoor activity & sport item,new,right,172,,,,,,,,
,,,,,,,,8,478552,2022-01-13_17h51.03.881,MemLear_ses-01_part-02_label-phase2,2020.1.3,Win32,60,right,1.0606,3,0.2458,0,55,55,54,1,stimuli/objects/whisk.jpg,Kitchen & utensil,new,right,145,,,,,,,,
,,,,,,,,8,478552,2022-01-13_17h51.03.881,MemLear_ses-01_part-02_label-phase2,2020.1.3,Win32,60,right,1.0915,2,0.1536,0,56,56,23,1,stimuli/objects/boxcutter03a.jpg,Hand labour tool & accessory,new,right,114,,,,,,,,
,,,,,,,,8,478552,2022-01-13_17h51.03.881,MemLear_ses-01_part-02_label-phase2,2020.1.3,Win32,60,right,0.7964,2,0.397,0,57,57,70,1,stimuli/objects/lawnmower.jpg,Hand labour tool & accessory,new,right,161,,,,,,,,
,,,,,,,,8,478552,2022-01-13_17h51.03.881,MemLear_ses-01_part-02_label-phase2,2020.1.3,Win32,60,right,1.1993,2,0.1401,0,58,58,4,1,stimuli/objects/soccerball.jpg,Outdoor activity & sport item,new,right,95,,,,,,,,
,,,,,,,,8,478552,2022-01-13_17h51.03.881,MemLear_ses-01_part-02_label-phase2,2020.1.3,Win32,60,left,0.8162,4,0.6551,0,59,59,79,1,stimuli/objects/exercisebench.jpg,Outdoor activity & sport item,old,left,170,,,,,,,,
,,,,,,,,8,478552,2022-01-13_17h51.03.881,MemLear_ses-01_part-02_label-phase2,2020.1.3,Win32,60,left,2.1975,3,0.401,0,60,60,7,1,stimuli/objects/cooler01.jpg,Outdoor activity & sport item,old,left,98,,,,,,,,
,,,,,,,,8,478552,2022-01-13_17h51.03.881,MemLear_ses-01_part-02_label-phase2,2020.1.3,Win32,60,right,0.864,4,0.2528,0,61,61,41,1,stimuli/objects/filmnegative.jpg,Electronic device & accessory,new,right,132,,,,,,,,
,,,,,,,,8,478552,2022-01-13_17h51.03.881,MemLear_ses-01_part-02_label-phase2,2020.1.3,Win32,60,left,1.4359,4,0.2637,0,62,62,5,1,stimuli/objects/snowshoe.jpg,Outdoor activity & sport item,old,left,96,,,,,,,,
,,,,,,,,8,478552,2022-01-13_17h51.03.881,MemLear_ses-01_part-02_label-phase2,2020.1.3,Win32,60,right,5.5292,1,1.2737,0,63,63,53,1,stimuli/objects/gluetube.jpg,Hand labour tool & accessory,old,left,144,,,,,,,,
,,,,,,,,8,478552,2022-01-13_17h51.03.881,MemLear_ses-01_part-02_label-phase2,2020.1.3,Win32,60,left,4.2014,2,0.3174,0,64,64,17,1,stimuli/objects/cuttingpliers02.jpg,Hand labour tool & accessory,old,left,108,,,,,,,,
,,,,,,,,8,478552,2022-01-13_17h51.03.881,MemLear_ses-01_part-02_label-phase2,2020.1.3,Win32,60,right,1.7529,2,0.2484,0,65,65,76,1,stimuli/objects/wirestripper.jpg,Hand labour tool & accessory,old,left,167,,,,,,,,
,,,,,,,,8,478552,2022-01-13_17h51.03.881,MemLear_ses-01_part-02_label-phase2,2020.1.3,Win32,60,right,1.1233,3,0.2752,0,66,66,10,1,stimuli/objects/shinpad.jpg,Outdoor activity & sport item,new,right,101,,,,,,,,
,,,,,,,,8,478552,2022-01-13_17h51.03.881,MemLear_ses-01_part-02_label-phase2,2020.1.3,Win32,60,left,1.0223,4,1.1555,0,67,67,39,1,stimuli/objects/kitchenscale01a.jpg,Kitchen & utensil,old,left,130,,,,,,,,
,,,,,,,,8,478552,2022-01-13_17h51.03.881,MemLear_ses-01_part-02_label-phase2,2020.1.3,Win32,60,right,1.2246,2,0.7924,0,68,68,24,1,stimuli/objects/hedgetrimmer.jpg,Hand labour tool & accessory,new,right,115,,,,,,,,
,,,,,,,,8,478552,2022-01-13_17h51.03.881,MemLear_ses-01_part-02_label-phase2,2020.1.3,Win32,60,left,0.8806,4,0.1455,0,69,69,63,1,stimuli/objects/frisbee.jpg,Outdoor activity & sport item,old,left,154,,,,,,,,
,,,,,,,,8,478552,2022-01-13_17h51.03.881,MemLear_ses-01_part-02_label-phase2,2020.1.3,Win32,60,right,0.9793,3,0.9809,0,70,70,0,1,stimuli/objects/diaperbag.jpg,Outdoor activity & sport item,new,right,91,,,,,,,,
,,,,,,,,8,478552,2022-01-13_17h51.03.881,MemLear_ses-01_part-02_label-phase2,2020.1.3,Win32,60,right,1.7097,3,0.3603,0,71,71,16,1,stimuli/objects/exercisebike.jpg,Outdoor activity & sport item,old,left,107,,,,,,,,
,,,,,,,,8,478552,2022-01-13_17h51.03.881,MemLear_ses-01_part-02_label-phase2,2020.1.3,Win32,60,left,1.1332,4,0.1802,0,72,72,9,1,stimuli/objects/carlighter02.jpg,Electronic device & accessory,old,left,100,,,,,,,,
,,,,,,,,8,478552,2022-01-13_17h51.03.881,MemLear_ses-01_part-02_label-phase2,2020.1.3,Win32,60,left,1.0497,4,0.2962,0,73,73,78,1,stimuli/objects/bungeecord02.jpg,Hand labour tool & accessory,old,left,169,,,,,,,,
,,,,,,,,8,478552,2022-01-13_17h51.03.881,MemLear_ses-01_part-02_label-phase2,2020.1.3,Win32,60,right,1.4741,2,1.2905,0,74,74,88,1,stimuli/objects/rollerblade.jpg,Outdoor activity & sport item,new,right,179,,,,,,,,
,,,,,,,,8,478552,2022-01-13_17h51.03.881,MemLear_ses-01_part-02_label-phase2,2020.1.3,Win32,60,left,1.3063,4,0.2526,0,75,75,66,1,stimuli/objects/squeegee01b.jpg,Hand labour tool & accessory,old,left,157,,,,,,,,
,,,,,,,,8,478552,2022-01-13_17h51.03.881,MemLear_ses-01_part-02_label-phase2,2020.1.3,Win32,60,left,1.2276,3,0.2549,0,76,76,67,1,stimuli/objects/bikewheel.jpg,Outdoor activity & sport item,old,left,158,,,,,,,,
,,,,,,,,8,478552,2022-01-13_17h51.03.881,MemLear_ses-01_part-02_label-phase2,2020.1.3,Win32,60,right,1.7365,1,0.2676,0,77,77,18,1,stimuli/objects/kiddiepool.jpg,Outdoor activity & sport item,new,right,109,,,,,,,,
,,,,,,,,8,478552,2022-01-13_17h51.03.881,MemLear_ses-01_part-02_label-phase2,2020.1.3,Win32,60,right,0.8722,2,0.2828,0,78,78,35,1,stimuli/objects/toolbox02.jpg,Hand labour tool & accessory,new,right,126,,,,,,,,
,,,,,,,,8,478552,2022-01-13_17h51.03.881,MemLear_ses-01_part-02_label-phase2,2020.1.3,Win32,60,right,0.8247,2,0.1993,0,79,79,1,1,stimuli/objects/toaster01.jpg,Kitchen & utensil,new,right,92,,,,,,,,
,,,,,,,,8,478552,2022-01-13_17h51.03.881,MemLear_ses-01_part-02_label-phase2,2020.1.3,Win32,60,left,0.8265,4,0.119,0,80,80,86,1,stimuli/objects/lifesaver.jpg,Outdoor activity & sport item,old,left,177,,,,,,,,
,,,,,,,,8,478552,2022-01-13_17h51.03.881,MemLear_ses-01_part-02_label-phase2,2020.1.3,Win32,60,left,2.6075,2,0.3353,0,81,81,43,1,stimuli/objects/lock03a.jpg,Hand labour tool & accessory,old,left,134,,,,,,,,
,,,,,,,,8,478552,2022-01-13_17h51.03.881,MemLear_ses-01_part-02_label-phase2,2020.1.3,Win32,60,left,0.9068,4,0.0094,0,82,82,28,1,stimuli/objects/punchingball.jpg,Outdoor activity & sport item,old,left,119,,,,,,,,
,,,,,,,,8,478552,2022-01-13_17h51.03.881,MemLear_ses-01_part-02_label-phase2,2020.1.3,Win32,60,left,0.9569,4,0.3152,0,83,83,19,1,stimuli/objects/metalbrush.jpg,Hand labour tool & accessory,old,left,110,,,,,,,,
,,,,,,,,8,478552,2022-01-13_17h51.03.881,MemLear_ses-01_part-02_label-phase2,2020.1.3,Win32,60,left,0.8161,4,0.1561,0,84,84,33,1,stimuli/objects/painttray.jpg,Hand labour tool & accessory,old,left,124,,,,,,,,
,,,,,,,,8,478552,2022-01-13_17h51.03.881,MemLear_ses-01_part-02_label-phase2,2020.1.3,Win32,60,right,1.0295,3,0.5701,0,85,85,58,1,stimuli/objects/jigsaw.jpg,Hand labour tool & accessory,new,right,149,,,,,,,,
,,,,,,,,8,478552,2022-01-13_17h51.03.881,MemLear_ses-01_part-02_label-phase2,2020.1.3,Win32,60,right,1.2167,3,0.2508,0,86,86,77,1,stimuli/objects/ladder.jpg,Hand labour tool & accessory,new,right,168,,,,,,,,
,,,,,,,,8,478552,2022-01-13_17h51.03.881,MemLear_ses-01_part-02_label-phase2,2020.1.3,Win32,60,left,0.9744,4,0.1116,0,87,87,37,1,stimuli/objects/tape02a.jpg,Hand labour tool & accessory,old,left,128,,,,,,,,
,,,,,,,,8,478552,2022-01-13_17h51.03.881,MemLear_ses-01_part-02_label-phase2,2020.1.3,Win32,60,right,0.8669,3,0.2385,0,88,88,8,1,stimuli/objects/tent.jpg,Outdoor activity & sport item,new,right,99,,,,,,,,
,,,,,,,,8,478552,2022-01-13_17h51.03.881,MemLear_ses-01_part-02_label-phase2,2020.1.3,Win32,60,right,1.0603,4,0.2035,0,89,89,49,1,stimuli/objects/television.jpg,Electronic device & accessory,new,right,140,,,,,,,,
,,,,,,,,8,478552,2022-01-13_17h51.03.881,MemLear_ses-01_part-02_label-phase2,2020.1.3,Win32,60,,,,,,,,,,,,,,,space,5.3308,0,1,1,1,1,condition_files/ImagesforRecog1_2.csv
