myownaccuracy,respcorrs,minNrPractice,considerNrTrials,Instr_resp.keys,Instr_resp.rt,key_resp_2.keys,key_resp_2.rt,instruction_loop.thisRepN,instruction_loop.thisTrialN,instruction_loop.thisN,instruction_loop.thisIndex,instruction_loop.ran,slides,participant,Expra Code,date,expName,psychopyVersion,OS,frameRate,taskGoresp.keys,taskGoresp.rt,pract_resp.keys,pract_resp.corr,pract_resp.rt,myownaccuracyCORR,pract_loop.thisRepN,pract_loop.thisTrialN,pract_loop.thisN,pract_loop.thisIndex,pract_loop.ran,character,left_categ,centleft_categ,centright_categ,right_categ,trial_cond,corr_ans,corr_ans_num,type,img,rep_resp.keys,rep_resp.rt,repeat_practice.thisRepN,repeat_practice.thisTrialN,repeat_practice.thisN,repeat_practice.thisIndex,repeat_practice.ran,task_response.keys,task_response.corr,task_response.rt,task_loop.thisRepN,task_loop.thisTrialN,task_loop.thisN,task_loop.thisIndex,task_loop.ran,condition
[],[],10,10,space,19.299,space,4.068,0,0,0,0,1,stimuli/slide1.png,22,990214,2021-12-20_15h07.13.414,MemLear_ses-01_part-01_label-phase1,2020.1.3,Win32,60,,,,,,,,,,,,,,,,,,,,,,,,,,,,,,,,,,,,,
,,,,,,space,13.451,0,1,1,1,1,stimuli/slide2.png,22,990214,2021-12-20_15h07.13.414,MemLear_ses-01_part-01_label-phase1,2020.1.3,Win32,60,,,,,,,,,,,,,,,,,,,,,,,,,,,,,,,,,,,,,
,,,,,,space,20.011,0,2,2,2,1,stimuli/slide3.png,22,990214,2021-12-20_15h07.13.414,MemLear_ses-01_part-01_label-phase1,2020.1.3,Win32,60,,,,,,,,,,,,,,,,,,,,,,,,,,,,,,,,,,,,,
,,,,,,space,12.094,0,3,3,3,1,stimuli/slide4.png,22,990214,2021-12-20_15h07.13.414,MemLear_ses-01_part-01_label-phase1,2020.1.3,Win32,60,,,,,,,,,,,,,,,,,,,,,,,,,,,,,,,,,,,,,
,,,,,,space,5.918,0,4,4,4,1,stimuli/slide5.png,22,990214,2021-12-20_15h07.13.414,MemLear_ses-01_part-01_label-phase1,2020.1.3,Win32,60,,,,,,,,,,,,,,,,,,,,,,,,,,,,,,,,,,,,,
,,,,,,space,6.701,0,5,5,5,1,stimuli/slide6.png,22,990214,2021-12-20_15h07.13.414,MemLear_ses-01_part-01_label-phase1,2020.1.3,Win32,60,,,,,,,,,,,,,,,,,,,,,,,,,,,,,,,,,,,,,
0,[],,,,,,,,,,,,,22,990214,2021-12-20_15h07.13.414,MemLear_ses-01_part-01_label-phase1,2020.1.3,Win32,60,space,11.537,2,0,1.535,0,0,0,0,0,1,stimuli/m_red.jpg,stimuli/Food.png,stimuli/Gamestoy & entertainment.png,stimuli/Vehicle.png,stimuli/Clothing.png,1,Food,1,1,stimuli/objects/chocolatecroissant.jpg,,,,,,,,,,,,,,,,
0,[0],,,,,,,,,,,,,22,990214,2021-12-20_15h07.13.414,MemLear_ses-01_part-01_label-phase1,2020.1.3,Win32,60,,,3,0,2.085,0,0,1,1,1,1,stimuli/m_red.jpg,stimuli/Clothing.png,stimuli/Food.png,stimuli/Gamestoy & entertainment.png,stimuli/Vehicle.png,0,Vehicle,4,0,stimuli/objects/tricycle.jpg,,,,,,,,,,,,,,,,
0,[0],,,,,,,,,,,,,22,990214,2021-12-20_15h07.13.414,MemLear_ses-01_part-01_label-phase1,2020.1.3,Win32,60,,,2,0,0.677,0,0,2,2,2,1,stimuli/m_blue.jpg,stimuli/Vehicle.png,stimuli/Clothing.png,stimuli/Gamestoy & entertainment.png,stimuli/Food.png,0,Food,4,0,stimuli/objects/cracker02.jpg,,,,,,,,,,,,,,,,
1,[0],,,,,,,,,,,,,22,990214,2021-12-20_15h07.13.414,MemLear_ses-01_part-01_label-phase1,2020.1.3,Win32,60,,,4,1,0.558,1,0,3,3,3,1,stimuli/m_red.jpg,stimuli/Clothing.png,stimuli/Vehicle.png,stimuli/Gamestoy & entertainment.png,stimuli/Food.png,1,Food,4,1,stimuli/objects/hotdog.jpg,,,,,,,,,,,,,,,,
0,"[0,1]",,,,,,,,,,,,,22,990214,2021-12-20_15h07.13.414,MemLear_ses-01_part-01_label-phase1,2020.1.3,Win32,60,,,1,0,2.098,0,0,4,4,4,1,stimuli/m_red.jpg,stimuli/Clothing.png,stimuli/Gamestoy & entertainment.png,stimuli/Food.png,stimuli/Vehicle.png,1,Food,3,1,stimuli/objects/kiwi03.jpg,,,,,,,,,,,,,,,,
1,"[0,1,0]",,,,,,,,,,,,,22,990214,2021-12-20_15h07.13.414,MemLear_ses-01_part-01_label-phase1,2020.1.3,Win32,60,,,3,1,2.488,1,0,5,5,5,1,stimuli/m_red.jpg,stimuli/Vehicle.png,stimuli/Gamestoy & entertainment.png,stimuli/Food.png,stimuli/Clothing.png,1,Food,3,1,stimuli/objects/greenolive.jpg,,,,,,,,,,,,,,,,
0,"[0,1,0,1]",,,,,,,,,,,,,22,990214,2021-12-20_15h07.13.414,MemLear_ses-01_part-01_label-phase1,2020.1.3,Win32,60,,,2,0,1.206,0,0,6,6,6,1,stimuli/m_blue.jpg,stimuli/Food.png,stimuli/Clothing.png,stimuli/Vehicle.png,stimuli/Gamestoy & entertainment.png,1,Gamestoy & entertainment,4,1,stimuli/objects/paperairplane.jpg,,,,,,,,,,,,,,,,
0,"[0,1,0,1,0]",,,,,,,,,,,,,22,990214,2021-12-20_15h07.13.414,MemLear_ses-01_part-01_label-phase1,2020.1.3,Win32,60,,,1,0,1.478,0,0,7,7,7,1,stimuli/m_blue.jpg,stimuli/Vehicle.png,stimuli/Gamestoy & entertainment.png,stimuli/Food.png,stimuli/Clothing.png,1,Gamestoy & entertainment,2,1,stimuli/objects/toyanimal02.jpg,,,,,,,,,,,,,,,,
1,"[0,1,0,1,0,0]",,,,,,,,,,,,,22,990214,2021-12-20_15h07.13.414,MemLear_ses-01_part-01_label-phase1,2020.1.3,Win32,60,,,4,1,1.957,1,0,8,8,8,1,stimuli/m_red.jpg,stimuli/Vehicle.png,stimuli/Clothing.png,stimuli/Gamestoy & entertainment.png,stimuli/Food.png,1,Food,4,1,stimuli/objects/casabamelon.jpg,,,,,,,,,,,,,,,,
0,"[0,1,0,1,0,0,1]",,,,,,,,,,,,,22,990214,2021-12-20_15h07.13.414,MemLear_ses-01_part-01_label-phase1,2020.1.3,Win32,60,,,4,0,0.961,0,0,9,9,9,1,stimuli/m_blue.jpg,stimuli/Gamestoy & entertainment.png,stimuli/Clothing.png,stimuli/Vehicle.png,stimuli/Food.png,1,Gamestoy & entertainment,1,1,stimuli/objects/paddleball.jpg,,,,,,,,,,,,,,,,
0,"[0,1,0,1,0,0,1,0]",,,,,,,,,,,,,22,990214,2021-12-20_15h07.13.414,MemLear_ses-01_part-01_label-phase1,2020.1.3,Win32,60,,,2,0,1.438,0,0,10,10,10,1,stimuli/m_blue.jpg,stimuli/Gamestoy & entertainment.png,stimuli/Clothing.png,stimuli/Food.png,stimuli/Vehicle.png,1,Gamestoy & entertainment,1,1,stimuli/objects/rockinghorse.jpg,,,,,,,,,,,,,,,,
1,"[0,1,0,1,0,0,1,0,0]",,,,,,,,,,,,,22,990214,2021-12-20_15h07.13.414,MemLear_ses-01_part-01_label-phase1,2020.1.3,Win32,60,,,2,1,1.76,1,0,11,11,11,1,stimuli/m_red.jpg,stimuli/Vehicle.png,stimuli/Food.png,stimuli/Clothing.png,stimuli/Gamestoy & entertainment.png,1,Food,2,1,stimuli/objects/arugula.jpg,,,,,,,,,,,,,,,,
0,"[0,1,0,1,0,0,1,0,0,1]",,,,,,,,,,,,,22,990214,2021-12-20_15h07.13.414,MemLear_ses-01_part-01_label-phase1,2020.1.3,Win32,60,,,4,0,1.699,0,0,12,12,12,1,stimuli/m_blue.jpg,stimuli/Food.png,stimuli/Clothing.png,stimuli/Gamestoy & entertainment.png,stimuli/Vehicle.png,1,Gamestoy & entertainment,3,1,stimuli/objects/dartboard.jpg,,,,,,,,,,,,,,,,
0,"[0,1,0,1,0,0,1,0,0,1,0]",,,,,,,,,,,,,22,990214,2021-12-20_15h07.13.414,MemLear_ses-01_part-01_label-phase1,2020.1.3,Win32,60,,,3,0,2.547,0,0,13,13,13,1,stimuli/m_red.jpg,stimuli/Clothing.png,stimuli/Gamestoy & entertainment.png,stimuli/Vehicle.png,stimuli/Food.png,1,Food,4,1,stimuli/objects/chickenshishkebab.jpg,,,,,,,,,,,,,,,,
1,"[0,1,0,1,0,0,1,0,0,1,0,0]",,,,,,,,,,,,,22,990214,2021-12-20_15h07.13.414,MemLear_ses-01_part-01_label-phase1,2020.1.3,Win32,60,,,3,1,1.729,1,0,14,14,14,1,stimuli/m_red.jpg,stimuli/Clothing.png,stimuli/Gamestoy & entertainment.png,stimuli/Food.png,stimuli/Vehicle.png,1,Food,3,1,stimuli/objects/relish.jpg,,,,,,,,,,,,,,,,
1,"[0,1,0,1,0,0,1,0,0,1,0,0,1]",,,,,,,,,,,,,22,990214,2021-12-20_15h07.13.414,MemLear_ses-01_part-01_label-phase1,2020.1.3,Win32,60,,,2,1,1.411,1,0,15,15,15,1,stimuli/m_blue.jpg,stimuli/Food.png,stimuli/Gamestoy & entertainment.png,stimuli/Clothing.png,stimuli/Vehicle.png,1,Gamestoy & entertainment,2,1,stimuli/objects/toyanimal01.jpg,,,,,,,,,,,,,,,,
0,"[0,1,0,1,0,0,1,0,0,1,0,0,1,1]",,,,,,,,,,,,,22,990214,2021-12-20_15h07.13.414,MemLear_ses-01_part-01_label-phase1,2020.1.3,Win32,60,,,1,0,1.18,1,0,16,16,16,1,stimuli/m_red.jpg,stimuli/Food.png,stimuli/Vehicle.png,stimuli/Clothing.png,stimuli/Gamestoy & entertainment.png,0,Gamestoy & entertainment,4,0,stimuli/objects/toyshape.jpg,,,,,,,,,,,,,,,,
1,"[0,1,0,1,0,0,1,0,0,1,0,0,1,1]",,,,,,,,,,,,,22,990214,2021-12-20_15h07.13.414,MemLear_ses-01_part-01_label-phase1,2020.1.3,Win32,60,,,2,1,0.9,1,0,17,17,17,1,stimuli/m_blue.jpg,stimuli/Food.png,stimuli/Gamestoy & entertainment.png,stimuli/Vehicle.png,stimuli/Clothing.png,1,Gamestoy & entertainment,2,1,stimuli/objects/rattle.jpg,,,,,,,,,,,,,,,,
0,"[0,1,0,1,0,0,1,0,0,1,0,0,1,1,1]",,,,,,,,,,,,,22,990214,2021-12-20_15h07.13.414,MemLear_ses-01_part-01_label-phase1,2020.1.3,Win32,60,,,3,0,0.715,1,0,18,18,18,1,stimuli/m_blue.jpg,stimuli/Clothing.png,stimuli/Food.png,stimuli/Gamestoy & entertainment.png,stimuli/Vehicle.png,0,Vehicle,4,0,stimuli/objects/cementtruck.jpg,,,,,,,,,,,,,,,,
0,"[0,1,0,1,0,0,1,0,0,1,0,0,1,1,1]",,,,,,,,,,,,,22,990214,2021-12-20_15h07.13.414,MemLear_ses-01_part-01_label-phase1,2020.1.3,Win32,60,,,4,0,3.276,1,0,19,19,19,1,stimuli/m_red.jpg,stimuli/Vehicle.png,stimuli/Gamestoy & entertainment.png,stimuli/Clothing.png,stimuli/Food.png,0,Vehicle,1,0,stimuli/objects/scissorlift.jpg,,,,,,,,,,,,,,,,
1,"[0,1,0,1,0,0,1,0,0,1,0,0,1,1,1]",,,,,,,,,,,,,22,990214,2021-12-20_15h07.13.414,MemLear_ses-01_part-01_label-phase1,2020.1.3,Win32,60,,,1,1,1.009,1,0,20,20,20,1,stimuli/m_blue.jpg,stimuli/Gamestoy & entertainment.png,stimuli/Food.png,stimuli/Vehicle.png,stimuli/Clothing.png,1,Gamestoy & entertainment,1,1,stimuli/objects/toydinosaur.jpg,,,,,,,,,,,,,,,,
0,"[0,1,0,1,0,0,1,0,0,1,0,0,1,1,1,1]",,,,,,,,,,,,,22,990214,2021-12-20_15h07.13.414,MemLear_ses-01_part-01_label-phase1,2020.1.3,Win32,60,,,3,0,0.997,0,0,21,21,21,1,stimuli/m_blue.jpg,stimuli/Clothing.png,stimuli/Vehicle.png,stimuli/Food.png,stimuli/Gamestoy & entertainment.png,1,Gamestoy & entertainment,4,1,stimuli/objects/sandbagthrowgame.jpg,,,,,,,,,,,,,,,,
1,"[0,1,0,1,0,0,1,0,0,1,0,0,1,1,1,1,0]",,,,,,,,,,,,,22,990214,2021-12-20_15h07.13.414,MemLear_ses-01_part-01_label-phase1,2020.1.3,Win32,60,,,3,1,1.993,0,0,22,22,22,1,stimuli/m_blue.jpg,stimuli/Food.png,stimuli/Gamestoy & entertainment.png,stimuli/Clothing.png,stimuli/Vehicle.png,0,Clothing,3,0,stimuli/objects/hikingshoe01.jpg,,,,,,,,,,,,,,,,
0,"[0,1,0,1,0,0,1,0,0,1,0,0,1,1,1,1,0]",,,,,,,,,,,,,22,990214,2021-12-20_15h07.13.414,MemLear_ses-01_part-01_label-phase1,2020.1.3,Win32,60,,,2,0,1.027,0,0,23,23,23,1,stimuli/m_blue.jpg,stimuli/Food.png,stimuli/Clothing.png,stimuli/Vehicle.png,stimuli/Gamestoy & entertainment.png,1,Gamestoy & entertainment,4,1,stimuli/objects/beachpaddle01a.jpg,,,,,,,,,,,,,,,,
1,"[0,1,0,1,0,0,1,0,0,1,0,0,1,1,1,1,0,0]",,,,,,,,,,,,,22,990214,2021-12-20_15h07.13.414,MemLear_ses-01_part-01_label-phase1,2020.1.3,Win32,60,,,1,1,3.092,1,0,24,24,24,1,stimuli/m_red.jpg,stimuli/Food.png,stimuli/Gamestoy & entertainment.png,stimuli/Clothing.png,stimuli/Vehicle.png,1,Food,1,1,stimuli/objects/apricot.jpg,,,,,,,,,,,,,,,,
0,"[0,1,0,1,0,0,1,0,0,1,0,0,1,1,1,1,0,0,1]",,,,,,,,,,,,,22,990214,2021-12-20_15h07.13.414,MemLear_ses-01_part-01_label-phase1,2020.1.3,Win32,60,,,3,0,1.386,1,0,25,25,25,1,stimuli/m_blue.jpg,stimuli/Food.png,stimuli/Vehicle.png,stimuli/Gamestoy & entertainment.png,stimuli/Clothing.png,0,Food,1,0,stimuli/objects/croissant01.jpg,,,,,,,,,,,,,,,,
1,"[0,1,0,1,0,0,1,0,0,1,0,0,1,1,1,1,0,0,1]",,,,,,,,,,,,,22,990214,2021-12-20_15h07.13.414,MemLear_ses-01_part-01_label-phase1,2020.1.3,Win32,60,,,2,1,0.803,1,0,26,26,26,1,stimuli/m_red.jpg,stimuli/Clothing.png,stimuli/Food.png,stimuli/Vehicle.png,stimuli/Gamestoy & entertainment.png,1,Food,2,1,stimuli/objects/icecreamcone01a.jpg,,,,,,,,,,,,,,,,
0,"[0,1,0,1,0,0,1,0,0,1,0,0,1,1,1,1,0,0,1,1]",,,,,,,,,,,,,22,990214,2021-12-20_15h07.13.414,MemLear_ses-01_part-01_label-phase1,2020.1.3,Win32,60,,,2,0,2.291,1,0,27,27,27,1,stimuli/m_blue.jpg,stimuli/Clothing.png,stimuli/Food.png,stimuli/Vehicle.png,stimuli/Gamestoy & entertainment.png,0,Clothing,1,0,stimuli/objects/tie02.jpg,,,,,,,,,,,,,,,,
0,"[0,1,0,1,0,0,1,0,0,1,0,0,1,1,1,1,0,0,1,1]",,,,,,,,,,,,,22,990214,2021-12-20_15h07.13.414,MemLear_ses-01_part-01_label-phase1,2020.1.3,Win32,60,,,4,0,1.608,0,0,28,28,28,1,stimuli/m_blue.jpg,stimuli/Vehicle.png,stimuli/Gamestoy & entertainment.png,stimuli/Clothing.png,stimuli/Food.png,1,Gamestoy & entertainment,2,1,stimuli/objects/marble.jpg,,,,,,,,,,,,,,,,
1,"[0,1,0,1,0,0,1,0,0,1,0,0,1,1,1,1,0,0,1,1,0]",,,,,,,,,,,,,22,990214,2021-12-20_15h07.13.414,MemLear_ses-01_part-01_label-phase1,2020.1.3,Win32,60,,,3,1,1.512,1,0,29,29,29,1,stimuli/m_red.jpg,stimuli/Gamestoy & entertainment.png,stimuli/Vehicle.png,stimuli/Food.png,stimuli/Clothing.png,1,Food,3,1,stimuli/objects/baguette01.jpg,,,,,,,,,,,,,,,,
0,"[0,1,0,1,0,0,1,0,0,1,0,0,1,1,1,1,0,0,1,1,0,1]",,,,,,,,,,,,,22,990214,2021-12-20_15h07.13.414,MemLear_ses-01_part-01_label-phase1,2020.1.3,Win32,60,,,4,0,1.121,0,0,30,30,30,1,stimuli/m_blue.jpg,stimuli/Gamestoy & entertainment.png,stimuli/Vehicle.png,stimuli/Food.png,stimuli/Clothing.png,1,Gamestoy & entertainment,1,1,stimuli/objects/pusharoundtoy.jpg,,,,,,,,,,,,,,,,
0,"[0,1,0,1,0,0,1,0,0,1,0,0,1,1,1,1,0,0,1,1,0,1,0]",,,,,,,,,,,,,22,990214,2021-12-20_15h07.13.414,MemLear_ses-01_part-01_label-phase1,2020.1.3,Win32,60,,,1,0,1.176,0,0,31,31,31,1,stimuli/m_blue.jpg,stimuli/Food.png,stimuli/Vehicle.png,stimuli/Clothing.png,stimuli/Gamestoy & entertainment.png,1,Gamestoy & entertainment,4,1,stimuli/objects/puzzlepiece.jpg,,,,,,,,,,,,,,,,
1,"[0,1,0,1,0,0,1,0,0,1,0,0,1,1,1,1,0,0,1,1,0,1,0,0]",,,,,,,,,,,,,22,990214,2021-12-20_15h07.13.414,MemLear_ses-01_part-01_label-phase1,2020.1.3,Win32,60,,,1,1,0.825,1,0,32,32,32,1,stimuli/m_blue.jpg,stimuli/Gamestoy & entertainment.png,stimuli/Vehicle.png,stimuli/Clothing.png,stimuli/Food.png,1,Gamestoy & entertainment,1,1,stimuli/objects/interlockingbuildingblock03b.jpg,,,,,,,,,,,,,,,,
1,"[0,1,0,1,0,0,1,0,0,1,0,0,1,1,1,1,0,0,1,1,0,1,0,0,1]",,,,,,,,,,,,,22,990214,2021-12-20_15h07.13.414,MemLear_ses-01_part-01_label-phase1,2020.1.3,Win32,60,,,4,1,0.675,1,0,33,33,33,1,stimuli/m_blue.jpg,stimuli/Vehicle.png,stimuli/Food.png,stimuli/Clothing.png,stimuli/Gamestoy & entertainment.png,1,Gamestoy & entertainment,4,1,stimuli/objects/airhockeytable.jpg,,,,,,,,,,,,,,,,
0,"[0,1,0,1,0,0,1,0,0,1,0,0,1,1,1,1,0,0,1,1,0,1,0,0,1,1]",,,,,,,,,,,,,22,990214,2021-12-20_15h07.13.414,MemLear_ses-01_part-01_label-phase1,2020.1.3,Win32,60,,,,0,,0,0,34,34,34,1,stimuli/m_red.jpg,stimuli/Vehicle.png,stimuli/Food.png,stimuli/Gamestoy & entertainment.png,stimuli/Clothing.png,1,Food,2,1,stimuli/objects/tortilla.jpg,,,,,,,,,,,,,,,,
0,"[0,1,0,1,0,0,1,0,0,1,0,0,1,1,1,1,0,0,1,1,0,1,0,0,1,1,0]",,,,,,,,,,,,,22,990214,2021-12-20_15h07.13.414,MemLear_ses-01_part-01_label-phase1,2020.1.3,Win32,60,,,2,0,0.895,0,0,35,35,35,1,stimuli/m_red.jpg,stimuli/Clothing.png,stimuli/Vehicle.png,stimuli/Gamestoy & entertainment.png,stimuli/Food.png,0,Gamestoy & entertainment,3,0,stimuli/objects/chessknight03a.jpg,,,,,,,,,,,,,,,,
1,"[0,1,0,1,0,0,1,0,0,1,0,0,1,1,1,1,0,0,1,1,0,1,0,0,1,1,0]",,,,,,,,,,,,,22,990214,2021-12-20_15h07.13.414,MemLear_ses-01_part-01_label-phase1,2020.1.3,Win32,60,,,3,1,0.609,1,0,36,36,36,1,stimuli/m_blue.jpg,stimuli/Clothing.png,stimuli/Food.png,stimuli/Gamestoy & entertainment.png,stimuli/Vehicle.png,1,Gamestoy & entertainment,3,1,stimuli/objects/toyanimal05.jpg,,,,,,,,,,,,,,,,
0,"[0,1,0,1,0,0,1,0,0,1,0,0,1,1,1,1,0,0,1,1,0,1,0,0,1,1,0,1]",,,,,,,,,,,,,22,990214,2021-12-20_15h07.13.414,MemLear_ses-01_part-01_label-phase1,2020.1.3,Win32,60,,,1,0,0.908,0,0,37,37,37,1,stimuli/m_blue.jpg,stimuli/Vehicle.png,stimuli/Food.png,stimuli/Clothing.png,stimuli/Gamestoy & entertainment.png,1,Gamestoy & entertainment,4,1,stimuli/objects/puppettheatre.jpg,,,,,,,,,,,,,,,,
0,"[0,1,0,1,0,0,1,0,0,1,0,0,1,1,1,1,0,0,1,1,0,1,0,0,1,1,0,1,0]",,,,,,,,,,,,,22,990214,2021-12-20_15h07.13.414,MemLear_ses-01_part-01_label-phase1,2020.1.3,Win32,60,,,2,0,1.497,0,0,38,38,38,1,stimuli/m_blue.jpg,stimuli/Gamestoy & entertainment.png,stimuli/Clothing.png,stimuli/Vehicle.png,stimuli/Food.png,0,Food,4,0,stimuli/objects/salsa.jpg,,,,,,,,,,,,,,,,
1,"[0,1,0,1,0,0,1,0,0,1,0,0,1,1,1,1,0,0,1,1,0,1,0,0,1,1,0,1,0]",,,,,,,,,,,,,22,990214,2021-12-20_15h07.13.414,MemLear_ses-01_part-01_label-phase1,2020.1.3,Win32,60,,,4,1,0.511,1,0,39,39,39,1,stimuli/m_red.jpg,stimuli/Gamestoy & entertainment.png,stimuli/Vehicle.png,stimuli/Clothing.png,stimuli/Food.png,1,Food,4,1,stimuli/objects/walnut01c.jpg,,,,,,,,,,,,,,,,
0,"[0,1,0,1,0,0,1,0,0,1,0,0,1,1,1,1,0,0,1,1,0,1,0,0,1,1,0,1,0,1]",,,,,,,,,,,,,22,990214,2021-12-20_15h07.13.414,MemLear_ses-01_part-01_label-phase1,2020.1.3,Win32,60,,,1,0,0.66,0,0,40,40,40,1,stimuli/m_red.jpg,stimuli/Gamestoy & entertainment.png,stimuli/Clothing.png,stimuli/Vehicle.png,stimuli/Food.png,1,Food,4,1,stimuli/objects/potato02b.jpg,,,,,,,,,,,,,,,,
0,"[0,1,0,1,0,0,1,0,0,1,0,0,1,1,1,1,0,0,1,1,0,1,0,0,1,1,0,1,0,1,0]",,,,,,,,,,,,,22,990214,2021-12-20_15h07.13.414,MemLear_ses-01_part-01_label-phase1,2020.1.3,Win32,60,,,3,0,1.661,0,0,41,41,41,1,stimuli/m_blue.jpg,stimuli/Clothing.png,stimuli/Vehicle.png,stimuli/Gamestoy & entertainment.png,stimuli/Food.png,0,Clothing,1,0,stimuli/objects/sheriffhat.jpg,,,,,,,,,,,,,,,,
0,"[0,1,0,1,0,0,1,0,0,1,0,0,1,1,1,1,0,0,1,1,0,1,0,0,1,1,0,1,0,1,0]",,,,,,,,,,,,,22,990214,2021-12-20_15h07.13.414,MemLear_ses-01_part-01_label-phase1,2020.1.3,Win32,60,,,2,0,1.131,0,0,42,42,42,1,stimuli/m_red.jpg,stimuli/Vehicle.png,stimuli/Gamestoy & entertainment.png,stimuli/Clothing.png,stimuli/Food.png,1,Food,4,1,stimuli/objects/spaghetti01.jpg,,,,,,,,,,,,,,,,
1,"[0,1,0,1,0,0,1,0,0,1,0,0,1,1,1,1,0,0,1,1,0,1,0,0,1,1,0,1,0,1,0,0]",,,,,,,,,,,,,22,990214,2021-12-20_15h07.13.414,MemLear_ses-01_part-01_label-phase1,2020.1.3,Win32,60,,,4,1,0.382,1,0,43,43,43,1,stimuli/m_red.jpg,stimuli/Gamestoy & entertainment.png,stimuli/Vehicle.png,stimuli/Clothing.png,stimuli/Food.png,1,Food,4,1,stimuli/objects/zucchini01.jpg,,,,,,,,,,,,,,,,
1,"[0,1,0,1,0,0,1,0,0,1,0,0,1,1,1,1,0,0,1,1,0,1,0,0,1,1,0,1,0,1,0,0,1]",,,,,,,,,,,,,22,990214,2021-12-20_15h07.13.414,MemLear_ses-01_part-01_label-phase1,2020.1.3,Win32,60,,,3,1,0.561,1,0,44,44,44,1,stimuli/m_red.jpg,stimuli/Gamestoy & entertainment.png,stimuli/Vehicle.png,stimuli/Food.png,stimuli/Clothing.png,1,Food,3,1,stimuli/objects/donut.jpg,,,,,,,,,,,,,,,,
0,"[0,1,0,1,0,0,1,0,0,1,0,0,1,1,1,1,0,0,1,1,0,1,0,0,1,1,0,1,0,1,0,0,1,1]",,,,,,,,,,,,,22,990214,2021-12-20_15h07.13.414,MemLear_ses-01_part-01_label-phase1,2020.1.3,Win32,60,,,1,0,0.692,0,0,45,45,45,1,stimuli/m_blue.jpg,stimuli/Clothing.png,stimuli/Gamestoy & entertainment.png,stimuli/Food.png,stimuli/Vehicle.png,1,Gamestoy & entertainment,2,1,stimuli/objects/bridgestick.jpg,,,,,,,,,,,,,,,,
1,"[0,1,0,1,0,0,1,0,0,1,0,0,1,1,1,1,0,0,1,1,0,1,0,0,1,1,0,1,0,1,0,0,1,1,0]",,,,,,,,,,,,,22,990214,2021-12-20_15h07.13.414,MemLear_ses-01_part-01_label-phase1,2020.1.3,Win32,60,,,1,1,1.144,1,0,46,46,46,1,stimuli/m_red.jpg,stimuli/Food.png,stimuli/Clothing.png,stimuli/Vehicle.png,stimuli/Gamestoy & entertainment.png,1,Food,1,1,stimuli/objects/cookie01.jpg,,,,,,,,,,,,,,,,
0,"[0,1,0,1,0,0,1,0,0,1,0,0,1,1,1,1,0,0,1,1,0,1,0,0,1,1,0,1,0,1,0,0,1,1,0,1]",,,,,,,,,,,,,22,990214,2021-12-20_15h07.13.414,MemLear_ses-01_part-01_label-phase1,2020.1.3,Win32,60,,,3,0,0.602,1,0,47,47,47,1,stimuli/m_red.jpg,stimuli/Clothing.png,stimuli/Food.png,stimuli/Vehicle.png,stimuli/Gamestoy & entertainment.png,0,Gamestoy & entertainment,4,0,stimuli/objects/rubikcube.jpg,,,,,,,,,,,,,,,,
1,"[0,1,0,1,0,0,1,0,0,1,0,0,1,1,1,1,0,0,1,1,0,1,0,0,1,1,0,1,0,1,0,0,1,1,0,1]",,,,,,,,,,,,,22,990214,2021-12-20_15h07.13.414,MemLear_ses-01_part-01_label-phase1,2020.1.3,Win32,60,,,3,1,0.818,1,0,48,48,48,1,stimuli/m_red.jpg,stimuli/Clothing.png,stimuli/Vehicle.png,stimuli/Food.png,stimuli/Gamestoy & entertainment.png,1,Food,3,1,stimuli/objects/grape01.jpg,,,,,,,,,,,,,,,,
0,"[0,1,0,1,0,0,1,0,0,1,0,0,1,1,1,1,0,0,1,1,0,1,0,0,1,1,0,1,0,1,0,0,1,1,0,1,1]",,,,,,,,,,,,,22,990214,2021-12-20_15h07.13.414,MemLear_ses-01_part-01_label-phase1,2020.1.3,Win32,60,,,2,0,1.483,1,0,49,49,49,1,stimuli/m_blue.jpg,stimuli/Vehicle.png,stimuli/Gamestoy & entertainment.png,stimuli/Clothing.png,stimuli/Food.png,0,Vehicle,1,0,stimuli/objects/schoolbus.jpg,,,,,,,,,,,,,,,,
0,"[0,1,0,1,0,0,1,0,0,1,0,0,1,1,1,1,0,0,1,1,0,1,0,0,1,1,0,1,0,1,0,0,1,1,0,1,1]",,,,,,,,,,,,,22,990214,2021-12-20_15h07.13.414,MemLear_ses-01_part-01_label-phase1,2020.1.3,Win32,60,,,3,0,3.135,0,0,50,50,50,1,stimuli/m_blue.jpg,stimuli/Gamestoy & entertainment.png,stimuli/Vehicle.png,stimuli/Food.png,stimuli/Clothing.png,1,Gamestoy & entertainment,1,1,stimuli/objects/pooltable.jpg,,,,,,,,,,,,,,,,
0,"[0,1,0,1,0,0,1,0,0,1,0,0,1,1,1,1,0,0,1,1,0,1,0,0,1,1,0,1,0,1,0,0,1,1,0,1,1,0]",,,,,,,,,,,,,22,990214,2021-12-20_15h07.13.414,MemLear_ses-01_part-01_label-phase1,2020.1.3,Win32,60,,,1,0,1.064,0,0,51,51,51,1,stimuli/m_red.jpg,stimuli/Food.png,stimuli/Gamestoy & entertainment.png,stimuli/Clothing.png,stimuli/Vehicle.png,0,Gamestoy & entertainment,2,0,stimuli/objects/toyanimal03.jpg,,,,,,,,,,,,,,,,
0,"[0,1,0,1,0,0,1,0,0,1,0,0,1,1,1,1,0,0,1,1,0,1,0,0,1,1,0,1,0,1,0,0,1,1,0,1,1,0]",,,,,,,,,,,,,22,990214,2021-12-20_15h07.13.414,MemLear_ses-01_part-01_label-phase1,2020.1.3,Win32,60,,,4,0,1.993,0,0,52,52,52,1,stimuli/m_red.jpg,stimuli/Food.png,stimuli/Clothing.png,stimuli/Vehicle.png,stimuli/Gamestoy & entertainment.png,1,Food,1,1,stimuli/objects/almond.jpg,,,,,,,,,,,,,,,,
1,"[0,1,0,1,0,0,1,0,0,1,0,0,1,1,1,1,0,0,1,1,0,1,0,0,1,1,0,1,0,1,0,0,1,1,0,1,1,0,0]",,,,,,,,,,,,,22,990214,2021-12-20_15h07.13.414,MemLear_ses-01_part-01_label-phase1,2020.1.3,Win32,60,,,3,1,1.265,1,0,53,53,53,1,stimuli/m_blue.jpg,stimuli/Clothing.png,stimuli/Vehicle.png,stimuli/Gamestoy & entertainment.png,stimuli/Food.png,1,Gamestoy & entertainment,3,1,stimuli/objects/jokercard.jpg,,,,,,,,,,,,,,,,
0,"[0,1,0,1,0,0,1,0,0,1,0,0,1,1,1,1,0,0,1,1,0,1,0,0,1,1,0,1,0,1,0,0,1,1,0,1,1,0,0,1]",,,,,,,,,,,,,22,990214,2021-12-20_15h07.13.414,MemLear_ses-01_part-01_label-phase1,2020.1.3,Win32,60,,,1,0,0.779,1,0,54,54,54,1,stimuli/m_red.jpg,stimuli/Food.png,stimuli/Vehicle.png,stimuli/Gamestoy & entertainment.png,stimuli/Clothing.png,0,Clothing,4,0,stimuli/objects/moccasin.jpg,,,,,,,,,,,,,,,,
0,"[0,1,0,1,0,0,1,0,0,1,0,0,1,1,1,1,0,0,1,1,0,1,0,0,1,1,0,1,0,1,0,0,1,1,0,1,1,0,0,1]",,,,,,,,,,,,,22,990214,2021-12-20_15h07.13.414,MemLear_ses-01_part-01_label-phase1,2020.1.3,Win32,60,,,1,0,0.96,1,0,55,55,55,1,stimuli/m_red.jpg,stimuli/Clothing.png,stimuli/Gamestoy & entertainment.png,stimuli/Vehicle.png,stimuli/Food.png,0,Vehicle,3,0,stimuli/objects/tractor.jpg,,,,,,,,,,,,,,,,
0,"[0,1,0,1,0,0,1,0,0,1,0,0,1,1,1,1,0,0,1,1,0,1,0,0,1,1,0,1,0,1,0,0,1,1,0,1,1,0,0,1]",,,,,,,,,,,,,22,990214,2021-12-20_15h07.13.414,MemLear_ses-01_part-01_label-phase1,2020.1.3,Win32,60,,,3,0,0.579,0,0,56,56,56,1,stimuli/m_blue.jpg,stimuli/Food.png,stimuli/Gamestoy & entertainment.png,stimuli/Vehicle.png,stimuli/Clothing.png,1,Gamestoy & entertainment,2,1,stimuli/objects/bowlingpin.jpg,,,,,,,,,,,,,,,,
0,"[0,1,0,1,0,0,1,0,0,1,0,0,1,1,1,1,0,0,1,1,0,1,0,0,1,1,0,1,0,1,0,0,1,1,0,1,1,0,0,1,0]",,,,,,,,,,,,,22,990214,2021-12-20_15h07.13.414,MemLear_ses-01_part-01_label-phase1,2020.1.3,Win32,60,,,2,0,0.664,0,0,57,57,57,1,stimuli/m_red.jpg,stimuli/Vehicle.png,stimuli/Gamestoy & entertainment.png,stimuli/Food.png,stimuli/Clothing.png,0,Vehicle,1,0,stimuli/objects/gardenutilityvehicle.jpg,,,,,,,,,,,,,,,,
1,"[0,1,0,1,0,0,1,0,0,1,0,0,1,1,1,1,0,0,1,1,0,1,0,0,1,1,0,1,0,1,0,0,1,1,0,1,1,0,0,1,0]",,,,,,,,,,,,,22,990214,2021-12-20_15h07.13.414,MemLear_ses-01_part-01_label-phase1,2020.1.3,Win32,60,,,1,1,1.296,0,0,58,58,58,1,stimuli/m_blue.jpg,stimuli/Vehicle.png,stimuli/Gamestoy & entertainment.png,stimuli/Food.png,stimuli/Clothing.png,0,Vehicle,1,0,stimuli/objects/windsurfboard.jpg,,,,,,,,,,,,,,,,
1,"[0,1,0,1,0,0,1,0,0,1,0,0,1,1,1,1,0,0,1,1,0,1,0,0,1,1,0,1,0,1,0,0,1,1,0,1,1,0,0,1,0]",,,,,,,,,,,,,22,990214,2021-12-20_15h07.13.414,MemLear_ses-01_part-01_label-phase1,2020.1.3,Win32,60,,,1,1,0.88,1,0,59,59,59,1,stimuli/m_red.jpg,stimuli/Food.png,stimuli/Gamestoy & entertainment.png,stimuli/Vehicle.png,stimuli/Clothing.png,1,Food,1,1,stimuli/objects/eggnoodle.jpg,,,,,,,,,,,,,,,,
0,"[0,1,0,1,0,0,1,0,0,1,0,0,1,1,1,1,0,0,1,1,0,1,0,0,1,1,0,1,0,1,0,0,1,1,0,1,1,0,0,1,0,1]",,,,,,,,,,,,,22,990214,2021-12-20_15h07.13.414,MemLear_ses-01_part-01_label-phase1,2020.1.3,Win32,60,,,3,0,0.863,0,0,60,60,60,1,stimuli/m_blue.jpg,stimuli/Clothing.png,stimuli/Gamestoy & entertainment.png,stimuli/Food.png,stimuli/Vehicle.png,1,Gamestoy & entertainment,2,1,stimuli/objects/sandshovel02a.jpg,,,,,,,,,,,,,,,,
0,"[0,1,0,1,0,0,1,0,0,1,0,0,1,1,1,1,0,0,1,1,0,1,0,0,1,1,0,1,0,1,0,0,1,1,0,1,1,0,0,1,0,1,0]",,,,,,,,,,,,,22,990214,2021-12-20_15h07.13.414,MemLear_ses-01_part-01_label-phase1,2020.1.3,Win32,60,,,4,0,0.6,0,0,61,61,61,1,stimuli/m_red.jpg,stimuli/Gamestoy & entertainment.png,stimuli/Clothing.png,stimuli/Vehicle.png,stimuli/Food.png,0,Clothing,2,0,stimuli/objects/soccercleat01.jpg,,,,,,,,,,,,,,,,
0,"[0,1,0,1,0,0,1,0,0,1,0,0,1,1,1,1,0,0,1,1,0,1,0,0,1,1,0,1,0,1,0,0,1,1,0,1,1,0,0,1,0,1,0]",,,,,,,,,,,,,22,990214,2021-12-20_15h07.13.414,MemLear_ses-01_part-01_label-phase1,2020.1.3,Win32,60,,,1,0,0.577,0,0,62,62,62,1,stimuli/m_red.jpg,stimuli/Gamestoy & entertainment.png,stimuli/Clothing.png,stimuli/Food.png,stimuli/Vehicle.png,0,Clothing,2,0,stimuli/objects/witchhat.jpg,,,,,,,,,,,,,,,,
0,"[0,1,0,1,0,0,1,0,0,1,0,0,1,1,1,1,0,0,1,1,0,1,0,0,1,1,0,1,0,1,0,0,1,1,0,1,1,0,0,1,0,1,0]",,,,,,,,,,,,,22,990214,2021-12-20_15h07.13.414,MemLear_ses-01_part-01_label-phase1,2020.1.3,Win32,60,,,3,0,0.613,0,0,63,63,63,1,stimuli/m_blue.jpg,stimuli/Clothing.png,stimuli/Gamestoy & entertainment.png,stimuli/Vehicle.png,stimuli/Food.png,1,Gamestoy & entertainment,2,1,stimuli/objects/highstrikergame.jpg,,,,,,,,,,,,,,,,
0,"[0,1,0,1,0,0,1,0,0,1,0,0,1,1,1,1,0,0,1,1,0,1,0,0,1,1,0,1,0,1,0,0,1,1,0,1,1,0,0,1,0,1,0,0]",,,,,,,,,,,,,22,990214,2021-12-20_15h07.13.414,MemLear_ses-01_part-01_label-phase1,2020.1.3,Win32,60,,,1,0,0.608,0,0,64,64,64,1,stimuli/m_red.jpg,stimuli/Gamestoy & entertainment.png,stimuli/Food.png,stimuli/Vehicle.png,stimuli/Clothing.png,1,Food,2,1,stimuli/objects/pecan02.jpg,,,,,,,,,,,,,,,,
0,"[0,1,0,1,0,0,1,0,0,1,0,0,1,1,1,1,0,0,1,1,0,1,0,0,1,1,0,1,0,1,0,0,1,1,0,1,1,0,0,1,0,1,0,0,0]",,,,,,,,,,,,,22,990214,2021-12-20_15h07.13.414,MemLear_ses-01_part-01_label-phase1,2020.1.3,Win32,60,,,4,0,2.05,0,0,65,65,65,1,stimuli/m_blue.jpg,stimuli/Vehicle.png,stimuli/Food.png,stimuli/Gamestoy & entertainment.png,stimuli/Clothing.png,1,Gamestoy & entertainment,3,1,stimuli/objects/pacifier02d.jpg,,,,,,,,,,,,,,,,
1,"[0,1,0,1,0,0,1,0,0,1,0,0,1,1,1,1,0,0,1,1,0,1,0,0,1,1,0,1,0,1,0,0,1,1,0,1,1,0,0,1,0,1,0,0,0,0]",,,,,,,,,,,,,22,990214,2021-12-20_15h07.13.414,MemLear_ses-01_part-01_label-phase1,2020.1.3,Win32,60,,,4,1,0.687,1,0,66,66,66,1,stimuli/m_blue.jpg,stimuli/Clothing.png,stimuli/Food.png,stimuli/Vehicle.png,stimuli/Gamestoy & entertainment.png,1,Gamestoy & entertainment,4,1,stimuli/objects/pooltriangle.jpg,,,,,,,,,,,,,,,,
1,"[0,1,0,1,0,0,1,0,0,1,0,0,1,1,1,1,0,0,1,1,0,1,0,0,1,1,0,1,0,1,0,0,1,1,0,1,1,0,0,1,0,1,0,0,0,0,1]",,,,,,,,,,,,,22,990214,2021-12-20_15h07.13.414,MemLear_ses-01_part-01_label-phase1,2020.1.3,Win32,60,,,2,1,0.683,1,0,67,67,67,1,stimuli/m_red.jpg,stimuli/Vehicle.png,stimuli/Clothing.png,stimuli/Gamestoy & entertainment.png,stimuli/Food.png,0,Clothing,2,0,stimuli/objects/sock01a.jpg,,,,,,,,,,,,,,,,
0,"[0,1,0,1,0,0,1,0,0,1,0,0,1,1,1,1,0,0,1,1,0,1,0,0,1,1,0,1,0,1,0,0,1,1,0,1,1,0,0,1,0,1,0,0,0,0,1]",,,,,,,,,,,,,22,990214,2021-12-20_15h07.13.414,MemLear_ses-01_part-01_label-phase1,2020.1.3,Win32,60,,,3,0,1.078,0,0,68,68,68,1,stimuli/m_red.jpg,stimuli/Gamestoy & entertainment.png,stimuli/Food.png,stimuli/Clothing.png,stimuli/Vehicle.png,1,Food,2,1,stimuli/objects/kiwi01a.jpg,,,,,,,,,,,,,,,,
0,"[0,1,0,1,0,0,1,0,0,1,0,0,1,1,1,1,0,0,1,1,0,1,0,0,1,1,0,1,0,1,0,0,1,1,0,1,1,0,0,1,0,1,0,0,0,0,1,0]",,,,,,,,,,,,,22,990214,2021-12-20_15h07.13.414,MemLear_ses-01_part-01_label-phase1,2020.1.3,Win32,60,,,4,0,1.328,0,0,69,69,69,1,stimuli/m_blue.jpg,stimuli/Vehicle.png,stimuli/Clothing.png,stimuli/Gamestoy & entertainment.png,stimuli/Food.png,1,Gamestoy & entertainment,3,1,stimuli/objects/playingcard.jpg,,,,,,,,,,,,,,,,
1,"[0,1,0,1,0,0,1,0,0,1,0,0,1,1,1,1,0,0,1,1,0,1,0,0,1,1,0,1,0,1,0,0,1,1,0,1,1,0,0,1,0,1,0,0,0,0,1,0,0]",,,,,,,,,,,,,22,990214,2021-12-20_15h07.13.414,MemLear_ses-01_part-01_label-phase1,2020.1.3,Win32,60,,,3,1,0.493,0,0,70,70,70,1,stimuli/m_blue.jpg,stimuli/Clothing.png,stimuli/Gamestoy & entertainment.png,stimuli/Vehicle.png,stimuli/Food.png,0,Vehicle,3,0,stimuli/objects/wheelchair.jpg,,,,,,,,,,,,,,,,
0,"[0,1,0,1,0,0,1,0,0,1,0,0,1,1,1,1,0,0,1,1,0,1,0,0,1,1,0,1,0,1,0,0,1,1,0,1,1,0,0,1,0,1,0,0,0,0,1,0,0]",,,,,,,,,,,,,22,990214,2021-12-20_15h07.13.414,MemLear_ses-01_part-01_label-phase1,2020.1.3,Win32,60,,,2,0,0.494,0,0,71,71,71,1,stimuli/m_blue.jpg,stimuli/Gamestoy & entertainment.png,stimuli/Vehicle.png,stimuli/Clothing.png,stimuli/Food.png,1,Gamestoy & entertainment,1,1,stimuli/objects/toytractor01b.jpg,,,,,,,,,,,,,,,,
0,"[0,1,0,1,0,0,1,0,0,1,0,0,1,1,1,1,0,0,1,1,0,1,0,0,1,1,0,1,0,1,0,0,1,1,0,1,1,0,0,1,0,1,0,0,0,0,1,0,0,0]",,,,,,,,,,,,,22,990214,2021-12-20_15h07.13.414,MemLear_ses-01_part-01_label-phase1,2020.1.3,Win32,60,,,3,0,0.608,0,0,72,72,72,1,stimuli/m_blue.jpg,stimuli/Gamestoy & entertainment.png,stimuli/Food.png,stimuli/Clothing.png,stimuli/Vehicle.png,1,Gamestoy & entertainment,1,1,stimuli/objects/playground.jpg,,,,,,,,,,,,,,,,
1,"[0,1,0,1,0,0,1,0,0,1,0,0,1,1,1,1,0,0,1,1,0,1,0,0,1,1,0,1,0,1,0,0,1,1,0,1,1,0,0,1,0,1,0,0,0,0,1,0,0,0,0]",,,,,,,,,,,,,22,990214,2021-12-20_15h07.13.414,MemLear_ses-01_part-01_label-phase1,2020.1.3,Win32,60,,,1,1,0.758,1,0,73,73,73,1,stimuli/m_red.jpg,stimuli/Food.png,stimuli/Clothing.png,stimuli/Gamestoy & entertainment.png,stimuli/Vehicle.png,1,Food,1,1,stimuli/objects/frenchfries.jpg,,,,,,,,,,,,,,,,
1,"[0,1,0,1,0,0,1,0,0,1,0,0,1,1,1,1,0,0,1,1,0,1,0,0,1,1,0,1,0,1,0,0,1,1,0,1,1,0,0,1,0,1,0,0,0,0,1,0,0,0,0,1]",,,,,,,,,,,,,22,990214,2021-12-20_15h07.13.414,MemLear_ses-01_part-01_label-phase1,2020.1.3,Win32,60,,,1,1,0.724,1,0,74,74,74,1,stimuli/m_red.jpg,stimuli/Food.png,stimuli/Vehicle.png,stimuli/Clothing.png,stimuli/Gamestoy & entertainment.png,1,Food,1,1,stimuli/objects/sausage.jpg,,,,,,,,,,,,,,,,
1,"[0,1,0,1,0,0,1,0,0,1,0,0,1,1,1,1,0,0,1,1,0,1,0,0,1,1,0,1,0,1,0,0,1,1,0,1,1,0,0,1,0,1,0,0,0,0,1,0,0,0,0,1,1]",,,,,,,,,,,,,22,990214,2021-12-20_15h07.13.414,MemLear_ses-01_part-01_label-phase1,2020.1.3,Win32,60,,,2,1,1.075,1,0,75,75,75,1,stimuli/m_red.jpg,stimuli/Clothing.png,stimuli/Food.png,stimuli/Gamestoy & entertainment.png,stimuli/Vehicle.png,1,Food,2,1,stimuli/objects/sunflowerseeds.jpg,,,,,,,,,,,,,,,,
0,"[0,1,0,1,0,0,1,0,0,1,0,0,1,1,1,1,0,0,1,1,0,1,0,0,1,1,0,1,0,1,0,0,1,1,0,1,1,0,0,1,0,1,0,0,0,0,1,0,0,0,0,1,1,1]",,,,,,,,,,,,,22,990214,2021-12-20_15h07.13.414,MemLear_ses-01_part-01_label-phase1,2020.1.3,Win32,60,,,4,0,1.629,1,0,76,76,76,1,stimuli/m_blue.jpg,stimuli/Food.png,stimuli/Vehicle.png,stimuli/Clothing.png,stimuli/Gamestoy & entertainment.png,0,Clothing,3,0,stimuli/objects/manshoe.jpg,,,,,,,,,,,,,,,,
0,"[0,1,0,1,0,0,1,0,0,1,0,0,1,1,1,1,0,0,1,1,0,1,0,0,1,1,0,1,0,1,0,0,1,1,0,1,1,0,0,1,0,1,0,0,0,0,1,0,0,0,0,1,1,1]",,,,,,,,,,,,,22,990214,2021-12-20_15h07.13.414,MemLear_ses-01_part-01_label-phase1,2020.1.3,Win32,60,,,1,0,1.243,0,0,77,77,77,1,stimuli/m_red.jpg,stimuli/Vehicle.png,stimuli/Food.png,stimuli/Clothing.png,stimuli/Gamestoy & entertainment.png,1,Food,2,1,stimuli/objects/blueberry01.jpg,,,,,,,,,,,,,,,,
1,"[0,1,0,1,0,0,1,0,0,1,0,0,1,1,1,1,0,0,1,1,0,1,0,0,1,1,0,1,0,1,0,0,1,1,0,1,1,0,0,1,0,1,0,0,0,0,1,0,0,0,0,1,1,1,0]",,,,,,,,,,,,,22,990214,2021-12-20_15h07.13.414,MemLear_ses-01_part-01_label-phase1,2020.1.3,Win32,60,,,3,1,0.679,1,0,78,78,78,1,stimuli/m_red.jpg,stimuli/Gamestoy & entertainment.png,stimuli/Clothing.png,stimuli/Food.png,stimuli/Vehicle.png,1,Food,3,1,stimuli/objects/broccoli01a.jpg,,,,,,,,,,,,,,,,
0,"[0,1,0,1,0,0,1,0,0,1,0,0,1,1,1,1,0,0,1,1,0,1,0,0,1,1,0,1,0,1,0,0,1,1,0,1,1,0,0,1,0,1,0,0,0,0,1,0,0,0,0,1,1,1,0,1]",,,,,,,,,,,,,22,990214,2021-12-20_15h07.13.414,MemLear_ses-01_part-01_label-phase1,2020.1.3,Win32,60,,,4,0,1.002,1,0,79,79,79,1,stimuli/m_blue.jpg,stimuli/Gamestoy & entertainment.png,stimuli/Clothing.png,stimuli/Food.png,stimuli/Vehicle.png,0,Food,3,0,stimuli/objects/honeydewmelon.jpg,,,,,,,,,,,,,,,,
,,,,,,,,,,,,,,22,990214,2021-12-20_15h07.13.414,MemLear_ses-01_part-01_label-phase1,2020.1.3,Win32,60,,,,,,,,,,,,,,,,,,,,,,j,153.123,0,0,0,0,1,,,,,,,,,
1,[],,,,,,,,,,,,,22,990214,2021-12-20_15h07.13.414,MemLear_ses-01_part-01_label-phase1,2020.1.3,Win32,60,,,1,1,0.72,1,0,0,0,0,1,stimuli/m_red.jpg,stimuli/Food.png,stimuli/Gamestoy & entertainment.png,stimuli/Vehicle.png,stimuli/Clothing.png,1,Food,1,1,stimuli/objects/chocolatecroissant.jpg,,,,,,,,,,,,,,,,
0,[1],,,,,,,,,,,,,22,990214,2021-12-20_15h07.13.414,MemLear_ses-01_part-01_label-phase1,2020.1.3,Win32,60,,,3,0,0.482,1,0,1,1,1,1,stimuli/m_red.jpg,stimuli/Clothing.png,stimuli/Food.png,stimuli/Gamestoy & entertainment.png,stimuli/Vehicle.png,0,Vehicle,4,0,stimuli/objects/tricycle.jpg,,,,,,,,,,,,,,,,
0,[1],,,,,,,,,,,,,22,990214,2021-12-20_15h07.13.414,MemLear_ses-01_part-01_label-phase1,2020.1.3,Win32,60,,,3,0,1.25,1,0,2,2,2,1,stimuli/m_blue.jpg,stimuli/Vehicle.png,stimuli/Clothing.png,stimuli/Gamestoy & entertainment.png,stimuli/Food.png,0,Food,4,0,stimuli/objects/cracker02.jpg,,,,,,,,,,,,,,,,
1,[1],,,,,,,,,,,,,22,990214,2021-12-20_15h07.13.414,MemLear_ses-01_part-01_label-phase1,2020.1.3,Win32,60,,,4,1,1.427,1,0,3,3,3,1,stimuli/m_red.jpg,stimuli/Clothing.png,stimuli/Vehicle.png,stimuli/Gamestoy & entertainment.png,stimuli/Food.png,1,Food,4,1,stimuli/objects/hotdog.jpg,,,,,,,,,,,,,,,,
1,"[1,1]",,,,,,,,,,,,,22,990214,2021-12-20_15h07.13.414,MemLear_ses-01_part-01_label-phase1,2020.1.3,Win32,60,,,3,1,0.816,1,0,4,4,4,1,stimuli/m_red.jpg,stimuli/Clothing.png,stimuli/Gamestoy & entertainment.png,stimuli/Food.png,stimuli/Vehicle.png,1,Food,3,1,stimuli/objects/kiwi03.jpg,,,,,,,,,,,,,,,,
1,"[1,1,1]",,,,,,,,,,,,,22,990214,2021-12-20_15h07.13.414,MemLear_ses-01_part-01_label-phase1,2020.1.3,Win32,60,,,3,1,0.761,1,0,5,5,5,1,stimuli/m_red.jpg,stimuli/Vehicle.png,stimuli/Gamestoy & entertainment.png,stimuli/Food.png,stimuli/Clothing.png,1,Food,3,1,stimuli/objects/greenolive.jpg,,,,,,,,,,,,,,,,
1,"[1,1,1,1]",,,,,,,,,,,,,22,990214,2021-12-20_15h07.13.414,MemLear_ses-01_part-01_label-phase1,2020.1.3,Win32,60,,,4,1,0.658,1,0,6,6,6,1,stimuli/m_blue.jpg,stimuli/Food.png,stimuli/Clothing.png,stimuli/Vehicle.png,stimuli/Gamestoy & entertainment.png,1,Gamestoy & entertainment,4,1,stimuli/objects/paperairplane.jpg,,,,,,,,,,,,,,,,
1,"[1,1,1,1,1]",,,,,,,,,,,,,22,990214,2021-12-20_15h07.13.414,MemLear_ses-01_part-01_label-phase1,2020.1.3,Win32,60,,,2,1,1.35,1,0,7,7,7,1,stimuli/m_blue.jpg,stimuli/Vehicle.png,stimuli/Gamestoy & entertainment.png,stimuli/Food.png,stimuli/Clothing.png,1,Gamestoy & entertainment,2,1,stimuli/objects/toyanimal02.jpg,,,,,,,,,,,,,,,,
1,"[1,1,1,1,1,1]",,,,,,,,,,,,,22,990214,2021-12-20_15h07.13.414,MemLear_ses-01_part-01_label-phase1,2020.1.3,Win32,60,,,4,1,1.198,1,0,8,8,8,1,stimuli/m_red.jpg,stimuli/Vehicle.png,stimuli/Clothing.png,stimuli/Gamestoy & entertainment.png,stimuli/Food.png,1,Food,4,1,stimuli/objects/casabamelon.jpg,,,,,,,,,,,,,,,,
1,"[1,1,1,1,1,1,1]",,,,,,,,,,,,,22,990214,2021-12-20_15h07.13.414,MemLear_ses-01_part-01_label-phase1,2020.1.3,Win32,60,,,1,1,1.219,1,0,9,9,9,1,stimuli/m_blue.jpg,stimuli/Gamestoy & entertainment.png,stimuli/Clothing.png,stimuli/Vehicle.png,stimuli/Food.png,1,Gamestoy & entertainment,1,1,stimuli/objects/paddleball.jpg,,,,,,,,,,,,,,,,
1,"[1,1,1,1,1,1,1,1]",,,,,,,,,,,,,22,990214,2021-12-20_15h07.13.414,MemLear_ses-01_part-01_label-phase1,2020.1.3,Win32,60,,,1,1,1.35,1,0,10,10,10,1,stimuli/m_blue.jpg,stimuli/Gamestoy & entertainment.png,stimuli/Clothing.png,stimuli/Food.png,stimuli/Vehicle.png,1,Gamestoy & entertainment,1,1,stimuli/objects/rockinghorse.jpg,,,,,,,,,,,,,,,,
1,"[1,1,1,1,1,1,1,1,1]",,,,,,,,,,,,,22,990214,2021-12-20_15h07.13.414,MemLear_ses-01_part-01_label-phase1,2020.1.3,Win32,60,,,2,1,0.648,1,0,11,11,11,1,stimuli/m_red.jpg,stimuli/Vehicle.png,stimuli/Food.png,stimuli/Clothing.png,stimuli/Gamestoy & entertainment.png,1,Food,2,1,stimuli/objects/arugula.jpg,,,,,,,,,,,,,,,,
,,,,,,,,,,,,,,22,990214,2021-12-20_15h07.13.414,MemLear_ses-01_part-01_label-phase1,2020.1.3,Win32,60,,,,,,,,,,,,,,,,,,,,,,n,105.405,1,0,1,0,1,,,,,,,,,
,,,,,,,,,,,,,,22,990214,2021-12-20_15h07.13.414,MemLear_ses-01_part-01_label-phase1,2020.1.3,Win32,60,,,,,,,,,,,,stimuli/m_black.jpg,stimuli/Electronic device & accessory.png,stimuli/Hand labour tool & accessory.png,stimuli/Kitchen & utensil.png,stimuli/Outdoor activity & sport item.png,,Electronic device & accessory,1,0,stimuli/objects/electricoutlet.jpg,,,,,,,,3,0,1.497,0,0,0,0,1,1
,,,,,,,,,,,,,,22,990214,2021-12-20_15h07.13.414,MemLear_ses-01_part-01_label-phase1,2020.1.3,Win32,60,,,,,,,,,,,,stimuli/m_black.jpg,stimuli/Kitchen & utensil.png,stimuli/Outdoor activity & sport item.png,stimuli/Electronic device & accessory.png,stimuli/Hand labour tool & accessory.png,,Kitchen & utensil,1,1,stimuli/objects/chocolatefonduedish.jpg,,,,,,,,1,1,1.176,0,1,1,1,1,1
,,,,,,,,,,,,,,22,990214,2021-12-20_15h07.13.414,MemLear_ses-01_part-01_label-phase1,2020.1.3,Win32,60,,,,,,,,,,,,stimuli/m_orange.jpg,stimuli/Outdoor activity & sport item.png,stimuli/Hand labour tool & accessory.png,stimuli/Electronic device & accessory.png,stimuli/Kitchen & utensil.png,,Outdoor activity & sport item,1,0,stimuli/objects/toyhockeystick01.jpg,,,,,,,,2,0,1.114,0,2,2,2,1,0
,,,,,,,,,,,,,,22,990214,2021-12-20_15h07.13.414,MemLear_ses-01_part-01_label-phase1,2020.1.3,Win32,60,,,,,,,,,,,,stimuli/m_orange.jpg,stimuli/Electronic device & accessory.png,stimuli/Kitchen & utensil.png,stimuli/Hand labour tool & accessory.png,stimuli/Outdoor activity & sport item.png,,Electronic device & accessory,1,1,stimuli/objects/alarmsystem.jpg,,,,,,,,2,0,0.928,0,3,3,3,1,0
,,,,,,,,,,,,,,22,990214,2021-12-20_15h07.13.414,MemLear_ses-01_part-01_label-phase1,2020.1.3,Win32,60,,,,,,,,,,,,stimuli/m_black.jpg,stimuli/Electronic device & accessory.png,stimuli/Kitchen & utensil.png,stimuli/Hand labour tool & accessory.png,stimuli/Outdoor activity & sport item.png,,Kitchen & utensil,2,1,stimuli/objects/pastaspoon.jpg,,,,,,,,2,1,0.578,0,4,4,4,1,1
,,,,,,,,,,,,,,22,990214,2021-12-20_15h07.13.414,MemLear_ses-01_part-01_label-phase1,2020.1.3,Win32,60,,,,,,,,,,,,stimuli/m_black.jpg,stimuli/Hand labour tool & accessory.png,stimuli/Electronic device & accessory.png,stimuli/Outdoor activity & sport item.png,stimuli/Kitchen & utensil.png,,Hand labour tool & accessory,1,0,stimuli/objects/caulking.jpg,,,,,,,,4,0,1.325,0,5,5,5,1,1
,,,,,,,,,,,,,,22,990214,2021-12-20_15h07.13.414,MemLear_ses-01_part-01_label-phase1,2020.1.3,Win32,60,,,,,,,,,,,,stimuli/m_black.jpg,stimuli/Kitchen & utensil.png,stimuli/Hand labour tool & accessory.png,stimuli/Electronic device & accessory.png,stimuli/Outdoor activity & sport item.png,,Electronic device & accessory,3,0,stimuli/objects/lamp04a.jpg,,,,,,,,1,0,1.408,0,6,6,6,1,1
,,,,,,,,,,,,,,22,990214,2021-12-20_15h07.13.414,MemLear_ses-01_part-01_label-phase1,2020.1.3,Win32,60,,,,,,,,,,,,stimuli/m_orange.jpg,stimuli/Hand labour tool & accessory.png,stimuli/Outdoor activity & sport item.png,stimuli/Kitchen & utensil.png,stimuli/Electronic device & accessory.png,,Electronic device & accessory,4,1,stimuli/objects/desktopcomputer.jpg,,,,,,,,4,1,1.885,0,7,7,7,1,0
,,,,,,,,,,,,,,22,990214,2021-12-20_15h07.13.414,MemLear_ses-01_part-01_label-phase1,2020.1.3,Win32,60,,,,,,,,,,,,stimuli/m_orange.jpg,stimuli/Hand labour tool & accessory.png,stimuli/Kitchen & utensil.png,stimuli/Outdoor activity & sport item.png,stimuli/Electronic device & accessory.png,,Electronic device & accessory,4,1,stimuli/objects/nintendods.jpg,,,,,,,,4,1,0.443,0,8,8,8,1,0
,,,,,,,,,,,,,,22,990214,2021-12-20_15h07.13.414,MemLear_ses-01_part-01_label-phase1,2020.1.3,Win32,60,,,,,,,,,,,,stimuli/m_black.jpg,stimuli/Outdoor activity & sport item.png,stimuli/Electronic device & accessory.png,stimuli/Hand labour tool & accessory.png,stimuli/Kitchen & utensil.png,,Kitchen & utensil,4,1,stimuli/objects/kitchenscale01a.jpg,,,,,,,,4,1,1.228,0,9,9,9,1,1
,,,,,,,,,,,,,,22,990214,2021-12-20_15h07.13.414,MemLear_ses-01_part-01_label-phase1,2020.1.3,Win32,60,,,,,,,,,,,,stimuli/m_black.jpg,stimuli/Electronic device & accessory.png,stimuli/Outdoor activity & sport item.png,stimuli/Hand labour tool & accessory.png,stimuli/Kitchen & utensil.png,,Kitchen & utensil,4,1,stimuli/objects/servingspoon01.jpg,,,,,,,,4,1,0.461,0,10,10,10,1,1
,,,,,,,,,,,,,,22,990214,2021-12-20_15h07.13.414,MemLear_ses-01_part-01_label-phase1,2020.1.3,Win32,60,,,,,,,,,,,,stimuli/m_orange.jpg,stimuli/Kitchen & utensil.png,stimuli/Outdoor activity & sport item.png,stimuli/Electronic device & accessory.png,stimuli/Hand labour tool & accessory.png,,Electronic device & accessory,3,1,stimuli/objects/videocamera01a.jpg,,,,,,,,3,1,1.659,0,11,11,11,1,0
,,,,,,,,,,,,,,22,990214,2021-12-20_15h07.13.414,MemLear_ses-01_part-01_label-phase1,2020.1.3,Win32,60,,,,,,,,,,,,stimuli/m_black.jpg,stimuli/Hand labour tool & accessory.png,stimuli/Kitchen & utensil.png,stimuli/Electronic device & accessory.png,stimuli/Outdoor activity & sport item.png,,Kitchen & utensil,2,1,stimuli/objects/coffeepot03a.jpg,,,,,,,,2,1,0.559,0,12,12,12,1,1
,,,,,,,,,,,,,,22,990214,2021-12-20_15h07.13.414,MemLear_ses-01_part-01_label-phase1,2020.1.3,Win32,60,,,,,,,,,,,,stimuli/m_orange.jpg,stimuli/Hand labour tool & accessory.png,stimuli/Electronic device & accessory.png,stimuli/Outdoor activity & sport item.png,stimuli/Kitchen & utensil.png,,Hand labour tool & accessory,1,0,stimuli/objects/lawnmower.jpg,,,,,,,,4,0,2.833,0,13,13,13,1,0
,,,,,,,,,,,,,,22,990214,2021-12-20_15h07.13.414,MemLear_ses-01_part-01_label-phase1,2020.1.3,Win32,60,,,,,,,,,,,,stimuli/m_orange.jpg,stimuli/Hand labour tool & accessory.png,stimuli/Electronic device & accessory.png,stimuli/Kitchen & utensil.png,stimuli/Outdoor activity & sport item.png,,Hand labour tool & accessory,1,0,stimuli/objects/boltcutter.jpg,,,,,,,,2,0,0.47,0,14,14,14,1,0
,,,,,,,,,,,,,,22,990214,2021-12-20_15h07.13.414,MemLear_ses-01_part-01_label-phase1,2020.1.3,Win32,60,,,,,,,,,,,,stimuli/m_orange.jpg,stimuli/Outdoor activity & sport item.png,stimuli/Kitchen & utensil.png,stimuli/Hand labour tool & accessory.png,stimuli/Electronic device & accessory.png,,Electronic device & accessory,4,1,stimuli/objects/lectern01.jpg,,,,,,,,4,1,0.961,0,15,15,15,1,0
,,,,,,,,,,,,,,22,990214,2021-12-20_15h07.13.414,MemLear_ses-01_part-01_label-phase1,2020.1.3,Win32,60,,,,,,,,,,,,stimuli/m_orange.jpg,stimuli/Electronic device & accessory.png,stimuli/Kitchen & utensil.png,stimuli/Outdoor activity & sport item.png,stimuli/Hand labour tool & accessory.png,,Electronic device & accessory,1,1,stimuli/objects/coffeemachine.jpg,,,,,,,,1,1,1.142,0,16,16,16,1,0
,,,,,,,,,,,,,,22,990214,2021-12-20_15h07.13.414,MemLear_ses-01_part-01_label-phase1,2020.1.3,Win32,60,,,,,,,,,,,,stimuli/m_black.jpg,stimuli/Kitchen & utensil.png,stimuli/Electronic device & accessory.png,stimuli/Outdoor activity & sport item.png,stimuli/Hand labour tool & accessory.png,,Kitchen & utensil,1,1,stimuli/objects/cowbell.jpg,,,,,,,,1,1,0.98,0,17,17,17,1,1
,,,,,,,,,,,,,,22,990214,2021-12-20_15h07.13.414,MemLear_ses-01_part-01_label-phase1,2020.1.3,Win32,60,,,,,,,,,,,,stimuli/m_black.jpg,stimuli/Electronic device & accessory.png,stimuli/Outdoor activity & sport item.png,stimuli/Kitchen & utensil.png,stimuli/Hand labour tool & accessory.png,,Kitchen & utensil,3,1,stimuli/objects/bottlecap.jpg,,,,,,,,3,1,0.926,0,18,18,18,1,1
,,,,,,,,,,,,,,22,990214,2021-12-20_15h07.13.414,MemLear_ses-01_part-01_label-phase1,2020.1.3,Win32,60,,,,,,,,,,,,stimuli/m_black.jpg,stimuli/Outdoor activity & sport item.png,stimuli/Kitchen & utensil.png,stimuli/Hand labour tool & accessory.png,stimuli/Electronic device & accessory.png,,Kitchen & utensil,2,1,stimuli/objects/oven.jpg,,,,,,,,2,1,0.902,0,19,19,19,1,1
,,,,,,,,,,,,,,22,990214,2021-12-20_15h07.13.414,MemLear_ses-01_part-01_label-phase1,2020.1.3,Win32,60,,,,,,,,,,,,stimuli/m_black.jpg,stimuli/Kitchen & utensil.png,stimuli/Electronic device & accessory.png,stimuli/Outdoor activity & sport item.png,stimuli/Hand labour tool & accessory.png,,Kitchen & utensil,1,1,stimuli/objects/tupperware03a.jpg,,,,,,,,1,1,0.712,0,20,20,20,1,1
,,,,,,,,,,,,,,22,990214,2021-12-20_15h07.13.414,MemLear_ses-01_part-01_label-phase1,2020.1.3,Win32,60,,,,,,,,,,,,stimuli/m_black.jpg,stimuli/Electronic device & accessory.png,stimuli/Hand labour tool & accessory.png,stimuli/Kitchen & utensil.png,stimuli/Outdoor activity & sport item.png,,Kitchen & utensil,3,1,stimuli/objects/bowl02a.jpg,,,,,,,,3,1,1.567,0,21,21,21,1,1
,,,,,,,,,,,,,,22,990214,2021-12-20_15h07.13.414,MemLear_ses-01_part-01_label-phase1,2020.1.3,Win32,60,,,,,,,,,,,,stimuli/m_orange.jpg,stimuli/Electronic device & accessory.png,stimuli/Hand labour tool & accessory.png,stimuli/Outdoor activity & sport item.png,stimuli/Kitchen & utensil.png,,Electronic device & accessory,1,1,stimuli/objects/scanner.jpg,,,,,,,,1,1,0.744,0,22,22,22,1,0
,,,,,,,,,,,,,,22,990214,2021-12-20_15h07.13.414,MemLear_ses-01_part-01_label-phase1,2020.1.3,Win32,60,,,,,,,,,,,,stimuli/m_orange.jpg,stimuli/Kitchen & utensil.png,stimuli/Outdoor activity & sport item.png,stimuli/Electronic device & accessory.png,stimuli/Hand labour tool & accessory.png,,Electronic device & accessory,3,1,stimuli/objects/extensioncord.jpg,,,,,,,,3,1,1.127,0,23,23,23,1,0
,,,,,,,,,,,,,,22,990214,2021-12-20_15h07.13.414,MemLear_ses-01_part-01_label-phase1,2020.1.3,Win32,60,,,,,,,,,,,,stimuli/m_orange.jpg,stimuli/Outdoor activity & sport item.png,stimuli/Hand labour tool & accessory.png,stimuli/Kitchen & utensil.png,stimuli/Electronic device & accessory.png,,Electronic device & accessory,4,1,stimuli/objects/expansioncard.jpg,,,,,,,,4,1,1.292,0,24,24,24,1,0
,,,,,,,,,,,,,,22,990214,2021-12-20_15h07.13.414,MemLear_ses-01_part-01_label-phase1,2020.1.3,Win32,60,,,,,,,,,,,,stimuli/m_orange.jpg,stimuli/Hand labour tool & accessory.png,stimuli/Outdoor activity & sport item.png,stimuli/Electronic device & accessory.png,stimuli/Kitchen & utensil.png,,Electronic device & accessory,3,1,stimuli/objects/gps.jpg,,,,,,,,3,1,1.144,0,25,25,25,1,0
,,,,,,,,,,,,,,22,990214,2021-12-20_15h07.13.414,MemLear_ses-01_part-01_label-phase1,2020.1.3,Win32,60,,,,,,,,,,,,stimuli/m_black.jpg,stimuli/Hand labour tool & accessory.png,stimuli/Outdoor activity & sport item.png,stimuli/Electronic device & accessory.png,stimuli/Kitchen & utensil.png,,Kitchen & utensil,4,1,stimuli/objects/potatomasher03b.jpg,,,,,,,,4,1,1.367,0,26,26,26,1,1
,,,,,,,,,,,,,,22,990214,2021-12-20_15h07.13.414,MemLear_ses-01_part-01_label-phase1,2020.1.3,Win32,60,,,,,,,,,,,,stimuli/m_black.jpg,stimuli/Electronic device & accessory.png,stimuli/Hand labour tool & accessory.png,stimuli/Kitchen & utensil.png,stimuli/Outdoor activity & sport item.png,,Electronic device & accessory,1,0,stimuli/objects/heatpump.jpg,,,,,,,,3,0,0.78,0,27,27,27,1,1
,,,,,,,,,,,,,,22,990214,2021-12-20_15h07.13.414,MemLear_ses-01_part-01_label-phase1,2020.1.3,Win32,60,,,,,,,,,,,,stimuli/m_orange.jpg,stimuli/Outdoor activity & sport item.png,stimuli/Kitchen & utensil.png,stimuli/Electronic device & accessory.png,stimuli/Hand labour tool & accessory.png,,Outdoor activity & sport item,1,0,stimuli/objects/charcoalbarbecue.jpg,,,,,,,,3,0,0.984,0,28,28,28,1,0
,,,,,,,,,,,,,,22,990214,2021-12-20_15h07.13.414,MemLear_ses-01_part-01_label-phase1,2020.1.3,Win32,60,,,,,,,,,,,,stimuli/m_orange.jpg,stimuli/Kitchen & utensil.png,stimuli/Electronic device & accessory.png,stimuli/Hand labour tool & accessory.png,stimuli/Outdoor activity & sport item.png,,Electronic device & accessory,2,1,stimuli/objects/powercable.jpg,,,,,,,,2,1,0.76,0,29,29,29,1,0
,,,,,,,,,,,,,,22,990214,2021-12-20_15h07.13.414,MemLear_ses-01_part-01_label-phase1,2020.1.3,Win32,60,,,,,,,,,,,,stimuli/m_orange.jpg,stimuli/Kitchen & utensil.png,stimuli/Hand labour tool & accessory.png,stimuli/Outdoor activity & sport item.png,stimuli/Electronic device & accessory.png,,Electronic device & accessory,4,1,stimuli/objects/taperecorder.jpg,,,,,,,,4,1,1.277,0,30,30,30,1,0
,,,,,,,,,,,,,,22,990214,2021-12-20_15h07.13.414,MemLear_ses-01_part-01_label-phase1,2020.1.3,Win32,60,,,,,,,,,,,,stimuli/m_orange.jpg,stimuli/Outdoor activity & sport item.png,stimuli/Electronic device & accessory.png,stimuli/Hand labour tool & accessory.png,stimuli/Kitchen & utensil.png,,Electronic device & accessory,2,1,stimuli/objects/usbkey.jpg,,,,,,,,2,1,0.977,0,31,31,31,1,0
,,,,,,,,,,,,,,22,990214,2021-12-20_15h07.13.414,MemLear_ses-01_part-01_label-phase1,2020.1.3,Win32,60,,,,,,,,,,,,stimuli/m_orange.jpg,stimuli/Electronic device & accessory.png,stimuli/Outdoor activity & sport item.png,stimuli/Hand labour tool & accessory.png,stimuli/Kitchen & utensil.png,,Electronic device & accessory,1,1,stimuli/objects/crocodileclips.jpg,,,,,,,,1,1,0.828,0,32,32,32,1,0
,,,,,,,,,,,,,,22,990214,2021-12-20_15h07.13.414,MemLear_ses-01_part-01_label-phase1,2020.1.3,Win32,60,,,,,,,,,,,,stimuli/m_orange.jpg,stimuli/Outdoor activity & sport item.png,stimuli/Electronic device & accessory.png,stimuli/Kitchen & utensil.png,stimuli/Hand labour tool & accessory.png,,Electronic device & accessory,2,1,stimuli/objects/walkman.jpg,,,,,,,,2,1,0.711,0,33,33,33,1,0
,,,,,,,,,,,,,,22,990214,2021-12-20_15h07.13.414,MemLear_ses-01_part-01_label-phase1,2020.1.3,Win32,60,,,,,,,,,,,,stimuli/m_black.jpg,stimuli/Electronic device & accessory.png,stimuli/Outdoor activity & sport item.png,stimuli/Kitchen & utensil.png,stimuli/Hand labour tool & accessory.png,,Electronic device & accessory,1,0,stimuli/objects/carlighter02.jpg,,,,,,,,3,0,0.577,0,34,34,34,1,1
,,,,,,,,,,,,,,22,990214,2021-12-20_15h07.13.414,MemLear_ses-01_part-01_label-phase1,2020.1.3,Win32,60,,,,,,,,,,,,stimuli/m_black.jpg,stimuli/Outdoor activity & sport item.png,stimuli/Kitchen & utensil.png,stimuli/Electronic device & accessory.png,stimuli/Hand labour tool & accessory.png,,Kitchen & utensil,2,1,stimuli/objects/martiniglass01b.jpg,,,,,,,,2,1,0.725,0,35,35,35,1,1
,,,,,,,,,,,,,,22,990214,2021-12-20_15h07.13.414,MemLear_ses-01_part-01_label-phase1,2020.1.3,Win32,60,,,,,,,,,,,,stimuli/m_orange.jpg,stimuli/Outdoor activity & sport item.png,stimuli/Electronic device & accessory.png,stimuli/Hand labour tool & accessory.png,stimuli/Kitchen & utensil.png,,Hand labour tool & accessory,3,0,stimuli/objects/tablesaw.jpg,,,,,,,,1,0,0.636,0,36,36,36,1,0
,,,,,,,,,,,,,,22,990214,2021-12-20_15h07.13.414,MemLear_ses-01_part-01_label-phase1,2020.1.3,Win32,60,,,,,,,,,,,,stimuli/m_black.jpg,stimuli/Electronic device & accessory.png,stimuli/Hand labour tool & accessory.png,stimuli/Outdoor activity & sport item.png,stimuli/Kitchen & utensil.png,,Outdoor activity & sport item,3,0,stimuli/objects/umbrella04.jpg,,,,,,,,4,0,0.768,0,37,37,37,1,1
,,,,,,,,,,,,,,22,990214,2021-12-20_15h07.13.414,MemLear_ses-01_part-01_label-phase1,2020.1.3,Win32,60,,,,,,,,,,,,stimuli/m_orange.jpg,stimuli/Kitchen & utensil.png,stimuli/Outdoor activity & sport item.png,stimuli/Hand labour tool & accessory.png,stimuli/Electronic device & accessory.png,,Electronic device & accessory,4,1,stimuli/objects/djmixer02.jpg,,,,,,,,4,1,1.009,0,38,38,38,1,0
,,,,,,,,,,,,,,22,990214,2021-12-20_15h07.13.414,MemLear_ses-01_part-01_label-phase1,2020.1.3,Win32,60,,,,,,,,,,,,stimuli/m_orange.jpg,stimuli/Hand labour tool & accessory.png,stimuli/Kitchen & utensil.png,stimuli/Electronic device & accessory.png,stimuli/Outdoor activity & sport item.png,,Kitchen & utensil,2,0,stimuli/objects/cakeplatter.jpg,,,,,,,,3,0,0.695,0,39,39,39,1,0
,,,,,,,,,,,,,,22,990214,2021-12-20_15h07.13.414,MemLear_ses-01_part-01_label-phase1,2020.1.3,Win32,60,,,,,,,,,,,,stimuli/m_orange.jpg,stimuli/Electronic device & accessory.png,stimuli/Hand labour tool & accessory.png,stimuli/Kitchen & utensil.png,stimuli/Outdoor activity & sport item.png,,Electronic device & accessory,1,1,stimuli/objects/computerkeyboard02.jpg,,,,,,,,1,1,1.064,0,40,40,40,1,0
,,,,,,,,,,,,,,22,990214,2021-12-20_15h07.13.414,MemLear_ses-01_part-01_label-phase1,2020.1.3,Win32,60,,,,,,,,,,,,stimuli/m_black.jpg,stimuli/Hand labour tool & accessory.png,stimuli/Electronic device & accessory.png,stimuli/Kitchen & utensil.png,stimuli/Outdoor activity & sport item.png,,Kitchen & utensil,3,1,stimuli/objects/spatula04.jpg,,,,,,,,3,1,0.76,0,41,41,41,1,1
,,,,,,,,,,,,,,22,990214,2021-12-20_15h07.13.414,MemLear_ses-01_part-01_label-phase1,2020.1.3,Win32,60,,,,,,,,,,,,stimuli/m_orange.jpg,stimuli/Outdoor activity & sport item.png,stimuli/Kitchen & utensil.png,stimuli/Electronic device & accessory.png,stimuli/Hand labour tool & accessory.png,,Electronic device & accessory,3,1,stimuli/objects/faxmachine.jpg,,,,,,,,3,1,1.046,0,42,42,42,1,0
,,,,,,,,,,,,,,22,990214,2021-12-20_15h07.13.414,MemLear_ses-01_part-01_label-phase1,2020.1.3,Win32,60,,,,,,,,,,,,stimuli/m_black.jpg,stimuli/Hand labour tool & accessory.png,stimuli/Kitchen & utensil.png,stimuli/Outdoor activity & sport item.png,stimuli/Electronic device & accessory.png,,Kitchen & utensil,2,1,stimuli/objects/measuringspoon.jpg,,,,,,,,2,1,0.686,0,43,43,43,1,1
,,,,,,,,,,,,,,22,990214,2021-12-20_15h07.13.414,MemLear_ses-01_part-01_label-phase1,2020.1.3,Win32,60,,,,,,,,,,,,stimuli/m_orange.jpg,stimuli/Kitchen & utensil.png,stimuli/Hand labour tool & accessory.png,stimuli/Electronic device & accessory.png,stimuli/Outdoor activity & sport item.png,,Kitchen & utensil,1,0,stimuli/objects/freezer02.jpg,,,,,,,,1,1,1.23,0,44,44,44,1,0
,,,,,,,,,,,,,,22,990214,2021-12-20_15h07.13.414,MemLear_ses-01_part-01_label-phase1,2020.1.3,Win32,60,,,,,,,,,,,,stimuli/m_orange.jpg,stimuli/Kitchen & utensil.png,stimuli/Electronic device & accessory.png,stimuli/Hand labour tool & accessory.png,stimuli/Outdoor activity & sport item.png,,Electronic device & accessory,2,1,stimuli/objects/lightswitch01.jpg,,,,,,,,2,1,1.317,0,45,45,45,1,0
,,,,,,,,,,,,,,22,990214,2021-12-20_15h07.13.414,MemLear_ses-01_part-01_label-phase1,2020.1.3,Win32,60,,,,,,,,,,,,stimuli/m_black.jpg,stimuli/Kitchen & utensil.png,stimuli/Hand labour tool & accessory.png,stimuli/Outdoor activity & sport item.png,stimuli/Electronic device & accessory.png,,Kitchen & utensil,1,1,stimuli/objects/cleaver01.jpg,,,,,,,,1,1,0.662,0,46,46,46,1,1
,,,,,,,,,,,,,,22,990214,2021-12-20_15h07.13.414,MemLear_ses-01_part-01_label-phase1,2020.1.3,Win32,60,,,,,,,,,,,,stimuli/m_orange.jpg,stimuli/Hand labour tool & accessory.png,stimuli/Electronic device & accessory.png,stimuli/Kitchen & utensil.png,stimuli/Outdoor activity & sport item.png,,Outdoor activity & sport item,4,0,stimuli/objects/kneepad01c.jpg,,,,,,,,2,0,0.46,0,47,47,47,1,0
,,,,,,,,,,,,,,22,990214,2021-12-20_15h07.13.414,MemLear_ses-01_part-01_label-phase1,2020.1.3,Win32,60,,,,,,,,,,,,stimuli/m_orange.jpg,stimuli/Hand labour tool & accessory.png,stimuli/Kitchen & utensil.png,stimuli/Outdoor activity & sport item.png,stimuli/Electronic device & accessory.png,,Electronic device & accessory,4,1,stimuli/objects/photocopier.jpg,,,,,,,,4,1,1.117,0,48,48,48,1,0
,,,,,,,,,,,,,,22,990214,2021-12-20_15h07.13.414,MemLear_ses-01_part-01_label-phase1,2020.1.3,Win32,60,,,,,,,,,,,,stimuli/m_orange.jpg,stimuli/Electronic device & accessory.png,stimuli/Outdoor activity & sport item.png,stimuli/Kitchen & utensil.png,stimuli/Hand labour tool & accessory.png,,Kitchen & utensil,3,0,stimuli/objects/fryingpan02a.jpg,,,,,,,,1,0,1.051,0,49,49,49,1,0
,,,,,,,,,,,,,,22,990214,2021-12-20_15h07.13.414,MemLear_ses-01_part-01_label-phase1,2020.1.3,Win32,60,,,,,,,,,,,,stimuli/m_black.jpg,stimuli/Outdoor activity & sport item.png,stimuli/Hand labour tool & accessory.png,stimuli/Kitchen & utensil.png,stimuli/Electronic device & accessory.png,,Outdoor activity & sport item,1,0,stimuli/objects/backpack01a.jpg,,,,,,,,3,0,0.926,0,50,50,50,1,1
,,,,,,,,,,,,,,22,990214,2021-12-20_15h07.13.414,MemLear_ses-01_part-01_label-phase1,2020.1.3,Win32,60,,,,,,,,,,,,stimuli/m_orange.jpg,stimuli/Kitchen & utensil.png,stimuli/Hand labour tool & accessory.png,stimuli/Outdoor activity & sport item.png,stimuli/Electronic device & accessory.png,,Electronic device & accessory,4,1,stimuli/objects/phonejack.jpg,,,,,,,,4,1,1.06,0,51,51,51,1,0
,,,,,,,,,,,,,,22,990214,2021-12-20_15h07.13.414,MemLear_ses-01_part-01_label-phase1,2020.1.3,Win32,60,,,,,,,,,,,,stimuli/m_orange.jpg,stimuli/Electronic device & accessory.png,stimuli/Outdoor activity & sport item.png,stimuli/Hand labour tool & accessory.png,stimuli/Kitchen & utensil.png,,Electronic device & accessory,1,1,stimuli/objects/chandelier.jpg,,,,,,,,1,1,1.141,0,52,52,52,1,0
,,,,,,,,,,,,,,22,990214,2021-12-20_15h07.13.414,MemLear_ses-01_part-01_label-phase1,2020.1.3,Win32,60,,,,,,,,,,,,stimuli/m_orange.jpg,stimuli/Hand labour tool & accessory.png,stimuli/Outdoor activity & sport item.png,stimuli/Kitchen & utensil.png,stimuli/Electronic device & accessory.png,,Kitchen & utensil,3,0,stimuli/objects/spatula03.jpg,,,,,,,,3,1,0.82,0,53,53,53,1,0
,,,,,,,,,,,,,,22,990214,2021-12-20_15h07.13.414,MemLear_ses-01_part-01_label-phase1,2020.1.3,Win32,60,,,,,,,,,,,,stimuli/m_black.jpg,stimuli/Electronic device & accessory.png,stimuli/Outdoor activity & sport item.png,stimuli/Hand labour tool & accessory.png,stimuli/Kitchen & utensil.png,,Kitchen & utensil,4,1,stimuli/objects/canister.jpg,,,,,,,,4,1,2.027,0,54,54,54,1,1
,,,,,,,,,,,,,,22,990214,2021-12-20_15h07.13.414,MemLear_ses-01_part-01_label-phase1,2020.1.3,Win32,60,,,,,,,,,,,,stimuli/m_orange.jpg,stimuli/Electronic device & accessory.png,stimuli/Kitchen & utensil.png,stimuli/Hand labour tool & accessory.png,stimuli/Outdoor activity & sport item.png,,Electronic device & accessory,1,1,stimuli/objects/cashregister01.jpg,,,,,,,,1,1,0.443,0,55,55,55,1,0
,,,,,,,,,,,,,,22,990214,2021-12-20_15h07.13.414,MemLear_ses-01_part-01_label-phase1,2020.1.3,Win32,60,,,,,,,,,,,,stimuli/m_orange.jpg,stimuli/Kitchen & utensil.png,stimuli/Hand labour tool & accessory.png,stimuli/Electronic device & accessory.png,stimuli/Outdoor activity & sport item.png,,Hand labour tool & accessory,2,0,stimuli/objects/swissarmyknife01a.jpg,,,,,,,,3,0,0.768,0,56,56,56,1,0
,,,,,,,,,,,,,,22,990214,2021-12-20_15h07.13.414,MemLear_ses-01_part-01_label-phase1,2020.1.3,Win32,60,,,,,,,,,,,,stimuli/m_orange.jpg,stimuli/Kitchen & utensil.png,stimuli/Hand labour tool & accessory.png,stimuli/Outdoor activity & sport item.png,stimuli/Electronic device & accessory.png,,Electronic device & accessory,4,1,stimuli/objects/carantenna.jpg,,,,,,,,4,1,0.693,0,57,57,57,1,0
,,,,,,,,,,,,,,22,990214,2021-12-20_15h07.13.414,MemLear_ses-01_part-01_label-phase1,2020.1.3,Win32,60,,,,,,,,,,,,stimuli/m_black.jpg,stimuli/Outdoor activity & sport item.png,stimuli/Kitchen & utensil.png,stimuli/Electronic device & accessory.png,stimuli/Hand labour tool & accessory.png,,Outdoor activity & sport item,1,0,stimuli/objects/bikepump01.jpg,,,,,,,,2,0,0.959,0,58,58,58,1,1
,,,,,,,,,,,,,,22,990214,2021-12-20_15h07.13.414,MemLear_ses-01_part-01_label-phase1,2020.1.3,Win32,60,,,,,,,,,,,,stimuli/m_orange.jpg,stimuli/Outdoor activity & sport item.png,stimuli/Electronic device & accessory.png,stimuli/Kitchen & utensil.png,stimuli/Hand labour tool & accessory.png,,Electronic device & accessory,2,1,stimuli/objects/telephone01b.jpg,,,,,,,,1,0,0.804,0,59,59,59,1,0
,,,,,,,,,,,,,,22,990214,2021-12-20_15h07.13.414,MemLear_ses-01_part-01_label-phase1,2020.1.3,Win32,60,,,,,,,,,,,,stimuli/m_black.jpg,stimuli/Hand labour tool & accessory.png,stimuli/Outdoor activity & sport item.png,stimuli/Electronic device & accessory.png,stimuli/Kitchen & utensil.png,,Kitchen & utensil,4,1,stimuli/objects/peeler01.jpg,,,,,,,,4,1,0.811,0,60,60,60,1,1
,,,,,,,,,,,,,,22,990214,2021-12-20_15h07.13.414,MemLear_ses-01_part-01_label-phase1,2020.1.3,Win32,60,,,,,,,,,,,,stimuli/m_black.jpg,stimuli/Outdoor activity & sport item.png,stimuli/Electronic device & accessory.png,stimuli/Kitchen & utensil.png,stimuli/Hand labour tool & accessory.png,,Kitchen & utensil,3,1,stimuli/objects/fonduefork01.jpg,,,,,,,,3,1,1.042,0,61,61,61,1,1
,,,,,,,,,,,,,,22,990214,2021-12-20_15h07.13.414,MemLear_ses-01_part-01_label-phase1,2020.1.3,Win32,60,,,,,,,,,,,,stimuli/m_orange.jpg,stimuli/Electronic device & accessory.png,stimuli/Outdoor activity & sport item.png,stimuli/Kitchen & utensil.png,stimuli/Hand labour tool & accessory.png,,Electronic device & accessory,1,1,stimuli/objects/battery02b.jpg,,,,,,,,1,1,1.277,0,62,62,62,1,0
,,,,,,,,,,,,,,22,990214,2021-12-20_15h07.13.414,MemLear_ses-01_part-01_label-phase1,2020.1.3,Win32,60,,,,,,,,,,,,stimuli/m_orange.jpg,stimuli/Kitchen & utensil.png,stimuli/Outdoor activity & sport item.png,stimuli/Electronic device & accessory.png,stimuli/Hand labour tool & accessory.png,,Hand labour tool & accessory,4,0,stimuli/objects/squeegee01b.jpg,,,,,,,,3,0,0.994,0,63,63,63,1,0
,,,,,,,,,,,,,,22,990214,2021-12-20_15h07.13.414,MemLear_ses-01_part-01_label-phase1,2020.1.3,Win32,60,,,,,,,,,,,,stimuli/m_black.jpg,stimuli/Electronic device & accessory.png,stimuli/Hand labour tool & accessory.png,stimuli/Outdoor activity & sport item.png,stimuli/Kitchen & utensil.png,,Kitchen & utensil,4,1,stimuli/objects/waterbottle03.jpg,,,,,,,,4,1,0.66,0,64,64,64,1,1
,,,,,,,,,,,,,,22,990214,2021-12-20_15h07.13.414,MemLear_ses-01_part-01_label-phase1,2020.1.3,Win32,60,,,,,,,,,,,,stimuli/m_black.jpg,stimuli/Outdoor activity & sport item.png,stimuli/Hand labour tool & accessory.png,stimuli/Electronic device & accessory.png,stimuli/Kitchen & utensil.png,,Kitchen & utensil,4,1,stimuli/objects/beermug01a.jpg,,,,,,,,4,1,1.126,0,65,65,65,1,1
,,,,,,,,,,,,,,22,990214,2021-12-20_15h07.13.414,MemLear_ses-01_part-01_label-phase1,2020.1.3,Win32,60,,,,,,,,,,,,stimuli/m_black.jpg,stimuli/Outdoor activity & sport item.png,stimuli/Kitchen & utensil.png,stimuli/Hand labour tool & accessory.png,stimuli/Electronic device & accessory.png,,Kitchen & utensil,2,1,stimuli/objects/icepack.jpg,,,,,,,,2,1,1.027,0,66,66,66,1,1
,,,,,,,,,,,,,,22,990214,2021-12-20_15h07.13.414,MemLear_ses-01_part-01_label-phase1,2020.1.3,Win32,60,,,,,,,,,,,,stimuli/m_orange.jpg,stimuli/Outdoor activity & sport item.png,stimuli/Electronic device & accessory.png,stimuli/Hand labour tool & accessory.png,stimuli/Kitchen & utensil.png,,Electronic device & accessory,2,1,stimuli/objects/lightbulb01.jpg,,,,,,,,2,1,0.942,0,67,67,67,1,0
,,,,,,,,,,,,,,22,990214,2021-12-20_15h07.13.414,MemLear_ses-01_part-01_label-phase1,2020.1.3,Win32,60,,,,,,,,,,,,stimuli/m_orange.jpg,stimuli/Hand labour tool & accessory.png,stimuli/Outdoor activity & sport item.png,stimuli/Electronic device & accessory.png,stimuli/Kitchen & utensil.png,,Electronic device & accessory,3,1,stimuli/objects/ipod.jpg,,,,,,,,3,1,0.881,0,68,68,68,1,0
,,,,,,,,,,,,,,22,990214,2021-12-20_15h07.13.414,MemLear_ses-01_part-01_label-phase1,2020.1.3,Win32,60,,,,,,,,,,,,stimuli/m_orange.jpg,stimuli/Kitchen & utensil.png,stimuli/Outdoor activity & sport item.png,stimuli/Hand labour tool & accessory.png,stimuli/Electronic device & accessory.png,,Electronic device & accessory,4,1,stimuli/objects/remotecontrol04.jpg,,,,,,,,4,1,0.627,0,69,69,69,1,0
,,,,,,,,,,,,,,22,990214,2021-12-20_15h07.13.414,MemLear_ses-01_part-01_label-phase1,2020.1.3,Win32,60,,,,,,,,,,,,stimuli/m_orange.jpg,stimuli/Kitchen & utensil.png,stimuli/Electronic device & accessory.png,stimuli/Outdoor activity & sport item.png,stimuli/Hand labour tool & accessory.png,,Electronic device & accessory,2,1,stimuli/objects/walkietalkie.jpg,,,,,,,,2,1,0.976,0,70,70,70,1,0
,,,,,,,,,,,,,,22,990214,2021-12-20_15h07.13.414,MemLear_ses-01_part-01_label-phase1,2020.1.3,Win32,60,,,,,,,,,,,,stimuli/m_black.jpg,stimuli/Hand labour tool & accessory.png,stimuli/Electronic device & accessory.png,stimuli/Outdoor activity & sport item.png,stimuli/Kitchen & utensil.png,,Kitchen & utensil,4,1,stimuli/objects/handmixer01d.jpg,,,,,,,,4,1,0.969,0,71,71,71,1,1
,,,,,,,,,,,,,,22,990214,2021-12-20_15h07.13.414,MemLear_ses-01_part-01_label-phase1,2020.1.3,Win32,60,,,,,,,,,,,,stimuli/m_orange.jpg,stimuli/Kitchen & utensil.png,stimuli/Electronic device & accessory.png,stimuli/Outdoor activity & sport item.png,stimuli/Hand labour tool & accessory.png,,Electronic device & accessory,2,1,stimuli/objects/filmroll.jpg,,,,,,,,2,1,0.736,0,72,72,72,1,0
,,,,,,,,,,,,,,22,990214,2021-12-20_15h07.13.414,MemLear_ses-01_part-01_label-phase1,2020.1.3,Win32,60,,,,,,,,,,,,stimuli/m_orange.jpg,stimuli/Electronic device & accessory.png,stimuli/Hand labour tool & accessory.png,stimuli/Outdoor activity & sport item.png,stimuli/Kitchen & utensil.png,,Electronic device & accessory,1,1,stimuli/objects/wiicontroller.jpg,,,,,,,,4,0,1.03,0,73,73,73,1,0
,,,,,,,,,,,,,,22,990214,2021-12-20_15h07.13.414,MemLear_ses-01_part-01_label-phase1,2020.1.3,Win32,60,,,,,,,,,,,,stimuli/m_black.jpg,stimuli/Outdoor activity & sport item.png,stimuli/Kitchen & utensil.png,stimuli/Hand labour tool & accessory.png,stimuli/Electronic device & accessory.png,,Outdoor activity & sport item,1,0,stimuli/objects/golfbag.jpg,,,,,,,,2,0,0.844,0,74,74,74,1,1
,,,,,,,,,,,,,,22,990214,2021-12-20_15h07.13.414,MemLear_ses-01_part-01_label-phase1,2020.1.3,Win32,60,,,,,,,,,,,,stimuli/m_orange.jpg,stimuli/Hand labour tool & accessory.png,stimuli/Outdoor activity & sport item.png,stimuli/Electronic device & accessory.png,stimuli/Kitchen & utensil.png,,Electronic device & accessory,3,1,stimuli/objects/avcable.jpg,,,,,,,,3,1,0.961,0,75,75,75,1,0
,,,,,,,,,,,,,,22,990214,2021-12-20_15h07.13.414,MemLear_ses-01_part-01_label-phase1,2020.1.3,Win32,60,,,,,,,,,,,,stimuli/m_black.jpg,stimuli/Hand labour tool & accessory.png,stimuli/Electronic device & accessory.png,stimuli/Kitchen & utensil.png,stimuli/Outdoor activity & sport item.png,,Hand labour tool & accessory,1,0,stimuli/objects/snowshovel.jpg,,,,,,,,3,0,1.392,0,76,76,76,1,1
,,,,,,,,,,,,,,22,990214,2021-12-20_15h07.13.414,MemLear_ses-01_part-01_label-phase1,2020.1.3,Win32,60,,,,,,,,,,,,stimuli/m_black.jpg,stimuli/Electronic device & accessory.png,stimuli/Kitchen & utensil.png,stimuli/Hand labour tool & accessory.png,stimuli/Outdoor activity & sport item.png,,Kitchen & utensil,2,1,stimuli/objects/dishrack.jpg,,,,,,,,2,1,1.624,0,77,77,77,1,1
,,,,,,,,,,,,,,22,990214,2021-12-20_15h07.13.414,MemLear_ses-01_part-01_label-phase1,2020.1.3,Win32,60,,,,,,,,,,,,stimuli/m_orange.jpg,stimuli/Outdoor activity & sport item.png,stimuli/Kitchen & utensil.png,stimuli/Hand labour tool & accessory.png,stimuli/Electronic device & accessory.png,,Outdoor activity & sport item,1,0,stimuli/objects/surfboard.jpg,,,,,,,,4,0,0.549,0,78,78,78,1,0
,,,,,,,,,,,,,,22,990214,2021-12-20_15h07.13.414,MemLear_ses-01_part-01_label-phase1,2020.1.3,Win32,60,,,,,,,,,,,,stimuli/m_black.jpg,stimuli/Electronic device & accessory.png,stimuli/Kitchen & utensil.png,stimuli/Hand labour tool & accessory.png,stimuli/Outdoor activity & sport item.png,,Kitchen & utensil,2,1,stimuli/objects/funnel.jpg,,,,,,,,2,1,0.56,0,79,79,79,1,1
,,,,,,,,,,,,,,22,990214,2021-12-20_15h07.13.414,MemLear_ses-01_part-01_label-phase1,2020.1.3,Win32,60,,,,,,,,,,,,stimuli/m_black.jpg,stimuli/Hand labour tool & accessory.png,stimuli/Kitchen & utensil.png,stimuli/Electronic device & accessory.png,stimuli/Outdoor activity & sport item.png,,Electronic device & accessory,3,0,stimuli/objects/jack.jpg,,,,,,,,2,0,0.445,0,80,80,80,1,1
,,,,,,,,,,,,,,22,990214,2021-12-20_15h07.13.414,MemLear_ses-01_part-01_label-phase1,2020.1.3,Win32,60,,,,,,,,,,,,stimuli/m_black.jpg,stimuli/Outdoor activity & sport item.png,stimuli/Hand labour tool & accessory.png,stimuli/Electronic device & accessory.png,stimuli/Kitchen & utensil.png,,Outdoor activity & sport item,1,0,stimuli/objects/podium.jpg,,,,,,,,4,0,0.794,0,81,81,81,1,1
,,,,,,,,,,,,,,22,990214,2021-12-20_15h07.13.414,MemLear_ses-01_part-01_label-phase1,2020.1.3,Win32,60,,,,,,,,,,,,stimuli/m_black.jpg,stimuli/Kitchen & utensil.png,stimuli/Electronic device & accessory.png,stimuli/Hand labour tool & accessory.png,stimuli/Outdoor activity & sport item.png,,Kitchen & utensil,1,1,stimuli/objects/peppermill02b.jpg,,,,,,,,1,1,1.195,0,82,82,82,1,1
,,,,,,,,,,,,,,22,990214,2021-12-20_15h07.13.414,MemLear_ses-01_part-01_label-phase1,2020.1.3,Win32,60,,,,,,,,,,,,stimuli/m_black.jpg,stimuli/Kitchen & utensil.png,stimuli/Outdoor activity & sport item.png,stimuli/Electronic device & accessory.png,stimuli/Hand labour tool & accessory.png,,Kitchen & utensil,1,1,stimuli/objects/grill.jpg,,,,,,,,1,1,1.159,0,83,83,83,1,1
,,,,,,,,,,,,,,22,990214,2021-12-20_15h07.13.414,MemLear_ses-01_part-01_label-phase1,2020.1.3,Win32,60,,,,,,,,,,,,stimuli/m_black.jpg,stimuli/Electronic device & accessory.png,stimuli/Kitchen & utensil.png,stimuli/Outdoor activity & sport item.png,stimuli/Hand labour tool & accessory.png,,Kitchen & utensil,2,1,stimuli/objects/ramekin01.jpg,,,,,,,,2,1,0.699,0,84,84,84,1,1
,,,,,,,,,,,,,,22,990214,2021-12-20_15h07.13.414,MemLear_ses-01_part-01_label-phase1,2020.1.3,Win32,60,,,,,,,,,,,,stimuli/m_black.jpg,stimuli/Kitchen & utensil.png,stimuli/Outdoor activity & sport item.png,stimuli/Hand labour tool & accessory.png,stimuli/Electronic device & accessory.png,,Kitchen & utensil,1,1,stimuli/objects/pitcher02b.jpg,,,,,,,,1,1,0.933,0,85,85,85,1,1
,,,,,,,,,,,,,,22,990214,2021-12-20_15h07.13.414,MemLear_ses-01_part-01_label-phase1,2020.1.3,Win32,60,,,,,,,,,,,,stimuli/m_black.jpg,stimuli/Outdoor activity & sport item.png,stimuli/Electronic device & accessory.png,stimuli/Kitchen & utensil.png,stimuli/Hand labour tool & accessory.png,,Kitchen & utensil,3,1,stimuli/objects/shotglass.jpg,,,,,,,,3,1,0.894,0,86,86,86,1,1
,,,,,,,,,,,,,,22,990214,2021-12-20_15h07.13.414,MemLear_ses-01_part-01_label-phase1,2020.1.3,Win32,60,,,,,,,,,,,,stimuli/m_orange.jpg,stimuli/Hand labour tool & accessory.png,stimuli/Electronic device & accessory.png,stimuli/Outdoor activity & sport item.png,stimuli/Kitchen & utensil.png,,Electronic device & accessory,2,1,stimuli/objects/spotlight.jpg,,,,,,,,2,1,0.798,0,87,87,87,1,0
,,,,,,,,,,,,,,22,990214,2021-12-20_15h07.13.414,MemLear_ses-01_part-01_label-phase1,2020.1.3,Win32,60,,,,,,,,,,,,stimuli/m_black.jpg,stimuli/Hand labour tool & accessory.png,stimuli/Electronic device & accessory.png,stimuli/Kitchen & utensil.png,stimuli/Outdoor activity & sport item.png,,Outdoor activity & sport item,4,0,stimuli/objects/beachumbrella01.jpg,,,,,,,,3,0,0.51,0,88,88,88,1,1
,,,,,,,,,,,,,,22,990214,2021-12-20_15h07.13.414,MemLear_ses-01_part-01_label-phase1,2020.1.3,Win32,60,,,,,,,,,,,,stimuli/m_orange.jpg,stimuli/Electronic device & accessory.png,stimuli/Kitchen & utensil.png,stimuli/Hand labour tool & accessory.png,stimuli/Outdoor activity & sport item.png,,Electronic device & accessory,1,1,stimuli/objects/cameracase01a.jpg,,,,,,,,2,0,0.466,0,89,89,89,1,0
,,,,,,,,,,,,,,22,990214,2021-12-20_15h07.13.414,MemLear_ses-01_part-01_label-phase1,2020.1.3,Win32,60,,,,,,,,,,,,stimuli/m_orange.jpg,stimuli/Outdoor activity & sport item.png,stimuli/Hand labour tool & accessory.png,stimuli/Kitchen & utensil.png,stimuli/Electronic device & accessory.png,,Outdoor activity & sport item,1,0,stimuli/objects/snowshoe.jpg,,,,,,,,4,0,1.543,0,90,90,90,1,0
,,,,,,,,,,,,,,22,990214,2021-12-20_15h07.13.414,MemLear_ses-01_part-01_label-phase1,2020.1.3,Win32,60,,,,,,,,,,,,stimuli/m_black.jpg,stimuli/Kitchen & utensil.png,stimuli/Hand labour tool & accessory.png,stimuli/Electronic device & accessory.png,stimuli/Outdoor activity & sport item.png,,Hand labour tool & accessory,2,0,stimuli/objects/knifesharpener.jpg,,,,,,,,1,0,1.176,0,91,91,91,1,1
,,,,,,,,,,,,,,22,990214,2021-12-20_15h07.13.414,MemLear_ses-01_part-01_label-phase1,2020.1.3,Win32,60,,,,,,,,,,,,stimuli/m_orange.jpg,stimuli/Kitchen & utensil.png,stimuli/Electronic device & accessory.png,stimuli/Hand labour tool & accessory.png,stimuli/Outdoor activity & sport item.png,,Electronic device & accessory,2,1,stimuli/objects/filmnegative.jpg,,,,,,,,2,1,0.865,0,92,92,92,1,0
,,,,,,,,,,,,,,22,990214,2021-12-20_15h07.13.414,MemLear_ses-01_part-01_label-phase1,2020.1.3,Win32,60,,,,,,,,,,,,stimuli/m_black.jpg,stimuli/Kitchen & utensil.png,stimuli/Hand labour tool & accessory.png,stimuli/Outdoor activity & sport item.png,stimuli/Electronic device & accessory.png,,Kitchen & utensil,1,1,stimuli/objects/breadknife.jpg,,,,,,,,1,1,3.673,0,93,93,93,1,1
,,,,,,,,,,,,,,22,990214,2021-12-20_15h07.13.414,MemLear_ses-01_part-01_label-phase1,2020.1.3,Win32,60,,,,,,,,,,,,stimuli/m_orange.jpg,stimuli/Hand labour tool & accessory.png,stimuli/Kitchen & utensil.png,stimuli/Outdoor activity & sport item.png,stimuli/Electronic device & accessory.png,,Electronic device & accessory,4,1,stimuli/objects/fanheater.jpg,,,,,,,,4,1,0.584,0,94,94,94,1,0
,,,,,,,,,,,,,,22,990214,2021-12-20_15h07.13.414,MemLear_ses-01_part-01_label-phase1,2020.1.3,Win32,60,,,,,,,,,,,,stimuli/m_black.jpg,stimuli/Hand labour tool & accessory.png,stimuli/Outdoor activity & sport item.png,stimuli/Kitchen & utensil.png,stimuli/Electronic device & accessory.png,,Kitchen & utensil,3,1,stimuli/objects/pot01.jpg,,,,,,,,3,1,1.709,0,95,95,95,1,1
,,,,,,,,,,,,,,22,990214,2021-12-20_15h07.13.414,MemLear_ses-01_part-01_label-phase1,2020.1.3,Win32,60,,,,,,,,,,,,stimuli/m_orange.jpg,stimuli/Kitchen & utensil.png,stimuli/Electronic device & accessory.png,stimuli/Outdoor activity & sport item.png,stimuli/Hand labour tool & accessory.png,,Electronic device & accessory,2,1,stimuli/objects/securitycamera.jpg,,,,,,,,2,1,0.784,0,96,96,96,1,0
,,,,,,,,,,,,,,22,990214,2021-12-20_15h07.13.414,MemLear_ses-01_part-01_label-phase1,2020.1.3,Win32,60,,,,,,,,,,,,stimuli/m_orange.jpg,stimuli/Electronic device & accessory.png,stimuli/Hand labour tool & accessory.png,stimuli/Outdoor activity & sport item.png,stimuli/Kitchen & utensil.png,,Outdoor activity & sport item,3,0,stimuli/objects/swimgoggles.jpg,,,,,,,,1,0,1.043,0,97,97,97,1,0
,,,,,,,,,,,,,,22,990214,2021-12-20_15h07.13.414,MemLear_ses-01_part-01_label-phase1,2020.1.3,Win32,60,,,,,,,,,,,,stimuli/m_black.jpg,stimuli/Hand labour tool & accessory.png,stimuli/Kitchen & utensil.png,stimuli/Outdoor activity & sport item.png,stimuli/Electronic device & accessory.png,,Kitchen & utensil,2,1,stimuli/objects/cookingpot.jpg,,,,,,,,2,1,0.942,0,98,98,98,1,1
,,,,,,,,,,,,,,22,990214,2021-12-20_15h07.13.414,MemLear_ses-01_part-01_label-phase1,2020.1.3,Win32,60,,,,,,,,,,,,stimuli/m_orange.jpg,stimuli/Electronic device & accessory.png,stimuli/Hand labour tool & accessory.png,stimuli/Kitchen & utensil.png,stimuli/Outdoor activity & sport item.png,,Kitchen & utensil,3,0,stimuli/objects/knife03.jpg,,,,,,,,1,0,0.844,0,99,99,99,1,0
,,,,,,,,,,,,,,22,990214,2021-12-20_15h07.13.414,MemLear_ses-01_part-01_label-phase1,2020.1.3,Win32,60,,,,,,,,,,,,stimuli/m_black.jpg,stimuli/Kitchen & utensil.png,stimuli/Electronic device & accessory.png,stimuli/Hand labour tool & accessory.png,stimuli/Outdoor activity & sport item.png,,Kitchen & utensil,1,1,stimuli/objects/whisk.jpg,,,,,,,,1,1,1.16,0,100,100,100,1,1
,,,,,,,,,,,,,,22,990214,2021-12-20_15h07.13.414,MemLear_ses-01_part-01_label-phase1,2020.1.3,Win32,60,,,,,,,,,,,,stimuli/m_black.jpg,stimuli/Hand labour tool & accessory.png,stimuli/Outdoor activity & sport item.png,stimuli/Electronic device & accessory.png,stimuli/Kitchen & utensil.png,,Kitchen & utensil,4,1,stimuli/objects/muffintray01.jpg,,,,,,,,4,1,1.34,0,101,101,101,1,1
,,,,,,,,,,,,,,22,990214,2021-12-20_15h07.13.414,MemLear_ses-01_part-01_label-phase1,2020.1.3,Win32,60,,,,,,,,,,,,stimuli/m_orange.jpg,stimuli/Hand labour tool & accessory.png,stimuli/Electronic device & accessory.png,stimuli/Kitchen & utensil.png,stimuli/Outdoor activity & sport item.png,,Electronic device & accessory,2,1,stimuli/objects/radio01.jpg,,,,,,,,3,0,0.98,0,102,102,102,1,0
,,,,,,,,,,,,,,22,990214,2021-12-20_15h07.13.414,MemLear_ses-01_part-01_label-phase1,2020.1.3,Win32,60,,,,,,,,,,,,stimuli/m_black.jpg,stimuli/Kitchen & utensil.png,stimuli/Electronic device & accessory.png,stimuli/Outdoor activity & sport item.png,stimuli/Hand labour tool & accessory.png,,Kitchen & utensil,1,1,stimuli/objects/fork03c.jpg,,,,,,,,1,1,1.891,0,103,103,103,1,1
,,,,,,,,,,,,,,22,990214,2021-12-20_15h07.13.414,MemLear_ses-01_part-01_label-phase1,2020.1.3,Win32,60,,,,,,,,,,,,stimuli/m_orange.jpg,stimuli/Outdoor activity & sport item.png,stimuli/Kitchen & utensil.png,stimuli/Hand labour tool & accessory.png,stimuli/Electronic device & accessory.png,,Electronic device & accessory,4,1,stimuli/objects/audiocablesplitter.jpg,,,,,,,,4,1,1.721,0,104,104,104,1,0
,,,,,,,,,,,,,,22,990214,2021-12-20_15h07.13.414,MemLear_ses-01_part-01_label-phase1,2020.1.3,Win32,60,,,,,,,,,,,,stimuli/m_black.jpg,stimuli/Hand labour tool & accessory.png,stimuli/Electronic device & accessory.png,stimuli/Outdoor activity & sport item.png,stimuli/Kitchen & utensil.png,,Hand labour tool & accessory,1,0,stimuli/objects/adjustablewrench01b.jpg,,,,,,,,1,1,0.932,0,105,105,105,1,1
,,,,,,,,,,,,,,22,990214,2021-12-20_15h07.13.414,MemLear_ses-01_part-01_label-phase1,2020.1.3,Win32,60,,,,,,,,,,,,stimuli/m_black.jpg,stimuli/Kitchen & utensil.png,stimuli/Hand labour tool & accessory.png,stimuli/Outdoor activity & sport item.png,stimuli/Electronic device & accessory.png,,Kitchen & utensil,1,1,stimuli/objects/coffeemaker.jpg,,,,,,,,1,1,1.343,0,106,106,106,1,1
,,,,,,,,,,,,,,22,990214,2021-12-20_15h07.13.414,MemLear_ses-01_part-01_label-phase1,2020.1.3,Win32,60,,,,,,,,,,,,stimuli/m_black.jpg,stimuli/Kitchen & utensil.png,stimuli/Outdoor activity & sport item.png,stimuli/Electronic device & accessory.png,stimuli/Hand labour tool & accessory.png,,Hand labour tool & accessory,4,0,stimuli/objects/painttray.jpg,,,,,,,,1,0,1.024,0,107,107,107,1,1
,,,,,,,,,,,,,,22,990214,2021-12-20_15h07.13.414,MemLear_ses-01_part-01_label-phase1,2020.1.3,Win32,60,,,,,,,,,,,,stimuli/m_black.jpg,stimuli/Outdoor activity & sport item.png,stimuli/Hand labour tool & accessory.png,stimuli/Kitchen & utensil.png,stimuli/Electronic device & accessory.png,,Kitchen & utensil,3,1,stimuli/objects/saltshaker03a.jpg,,,,,,,,1,0,0.685,0,108,108,108,1,1
,,,,,,,,,,,,,,22,990214,2021-12-20_15h07.13.414,MemLear_ses-01_part-01_label-phase1,2020.1.3,Win32,60,,,,,,,,,,,,stimuli/m_black.jpg,stimuli/Electronic device & accessory.png,stimuli/Hand labour tool & accessory.png,stimuli/Outdoor activity & sport item.png,stimuli/Kitchen & utensil.png,,Kitchen & utensil,4,1,stimuli/objects/cuttingboard.jpg,,,,,,,,4,1,1.211,0,109,109,109,1,1
,,,,,,,,,,,,,,22,990214,2021-12-20_15h07.13.414,MemLear_ses-01_part-01_label-phase1,2020.1.3,Win32,60,,,,,,,,,,,,stimuli/m_orange.jpg,stimuli/Outdoor activity & sport item.png,stimuli/Hand labour tool & accessory.png,stimuli/Electronic device & accessory.png,stimuli/Kitchen & utensil.png,,Electronic device & accessory,3,1,stimuli/objects/soundmixer.jpg,,,,,,,,3,1,2.508,0,110,110,110,1,0
,,,,,,,,,,,,,,22,990214,2021-12-20_15h07.13.414,MemLear_ses-01_part-01_label-phase1,2020.1.3,Win32,60,,,,,,,,,,,,stimuli/m_orange.jpg,stimuli/Hand labour tool & accessory.png,stimuli/Kitchen & utensil.png,stimuli/Electronic device & accessory.png,stimuli/Outdoor activity & sport item.png,,Electronic device & accessory,3,1,stimuli/objects/payphone.jpg,,,,,,,,3,1,0.428,0,111,111,111,1,0
,,,,,,,,,,,,,,22,990214,2021-12-20_15h07.13.414,MemLear_ses-01_part-01_label-phase1,2020.1.3,Win32,60,,,,,,,,,,,,stimuli/m_black.jpg,stimuli/Outdoor activity & sport item.png,stimuli/Electronic device & accessory.png,stimuli/Hand labour tool & accessory.png,stimuli/Kitchen & utensil.png,,Hand labour tool & accessory,3,0,stimuli/objects/cuttingpliers02.jpg,,,,,,,,4,0,0.712,0,112,112,112,1,1
,,,,,,,,,,,,,,22,990214,2021-12-20_15h07.13.414,MemLear_ses-01_part-01_label-phase1,2020.1.3,Win32,60,,,,,,,,,,,,stimuli/m_orange.jpg,stimuli/Hand labour tool & accessory.png,stimuli/Electronic device & accessory.png,stimuli/Outdoor activity & sport item.png,stimuli/Kitchen & utensil.png,,Hand labour tool & accessory,1,0,stimuli/objects/wateringcan.jpg,,,,,,,,2,0,0.975,0,113,113,113,1,0
,,,,,,,,,,,,,,22,990214,2021-12-20_15h07.13.414,MemLear_ses-01_part-01_label-phase1,2020.1.3,Win32,60,,,,,,,,,,,,stimuli/m_black.jpg,stimuli/Kitchen & utensil.png,stimuli/Electronic device & accessory.png,stimuli/Hand labour tool & accessory.png,stimuli/Outdoor activity & sport item.png,,Kitchen & utensil,1,1,stimuli/objects/toasteroven.jpg,,,,,,,,1,1,1.958,0,114,114,114,1,1
,,,,,,,,,,,,,,22,990214,2021-12-20_15h07.13.414,MemLear_ses-01_part-01_label-phase1,2020.1.3,Win32,60,,,,,,,,,,,,stimuli/m_black.jpg,stimuli/Hand labour tool & accessory.png,stimuli/Kitchen & utensil.png,stimuli/Outdoor activity & sport item.png,stimuli/Electronic device & accessory.png,,Kitchen & utensil,2,1,stimuli/objects/minifridge.jpg,,,,,,,,2,1,1.527,0,115,115,115,1,1
,,,,,,,,,,,,,,22,990214,2021-12-20_15h07.13.414,MemLear_ses-01_part-01_label-phase1,2020.1.3,Win32,60,,,,,,,,,,,,stimuli/m_orange.jpg,stimuli/Electronic device & accessory.png,stimuli/Hand labour tool & accessory.png,stimuli/Kitchen & utensil.png,stimuli/Outdoor activity & sport item.png,,Kitchen & utensil,3,0,stimuli/objects/fridge.jpg,,,,,,,,1,0,1.294,0,116,116,116,1,0
,,,,,,,,,,,,,,22,990214,2021-12-20_15h07.13.414,MemLear_ses-01_part-01_label-phase1,2020.1.3,Win32,60,,,,,,,,,,,,stimuli/m_black.jpg,stimuli/Hand labour tool & accessory.png,stimuli/Outdoor activity & sport item.png,stimuli/Kitchen & utensil.png,stimuli/Electronic device & accessory.png,,Electronic device & accessory,4,0,stimuli/objects/camera01a.jpg,,,,,,,,3,0,0.727,0,117,117,117,1,1
,,,,,,,,,,,,,,22,990214,2021-12-20_15h07.13.414,MemLear_ses-01_part-01_label-phase1,2020.1.3,Win32,60,,,,,,,,,,,,stimuli/m_black.jpg,stimuli/Outdoor activity & sport item.png,stimuli/Electronic device & accessory.png,stimuli/Hand labour tool & accessory.png,stimuli/Kitchen & utensil.png,,Kitchen & utensil,4,1,stimuli/objects/spicerack.jpg,,,,,,,,4,1,1.712,0,118,118,118,1,1
,,,,,,,,,,,,,,22,990214,2021-12-20_15h07.13.414,MemLear_ses-01_part-01_label-phase1,2020.1.3,Win32,60,,,,,,,,,,,,stimuli/m_black.jpg,stimuli/Kitchen & utensil.png,stimuli/Outdoor activity & sport item.png,stimuli/Hand labour tool & accessory.png,stimuli/Electronic device & accessory.png,,Kitchen & utensil,1,1,stimuli/objects/icebucket.jpg,,,,,,,,1,1,1.126,0,119,119,119,1,1
