myownaccuracy,respcorrs,minNrPractice,considerNrTrials,Instr_resp.keys,Instr_resp.rt,key_resp_2.keys,key_resp_2.rt,instruction_loop.thisRepN,instruction_loop.thisTrialN,instruction_loop.thisN,instruction_loop.thisIndex,instruction_loop.ran,slides,participant,Expra Code,date,expName,psychopyVersion,OS,frameRate,taskGoresp.keys,taskGoresp.rt,pract_resp.keys,pract_resp.corr,pract_resp.rt,myownaccuracyCORR,pract_loop.thisRepN,pract_loop.thisTrialN,pract_loop.thisN,pract_loop.thisIndex,pract_loop.ran,character,left_categ,centleft_categ,centright_categ,right_categ,trial_cond,corr_ans,corr_ans_num,type,img,rep_resp.keys,rep_resp.rt,repeat_practice.thisRepN,repeat_practice.thisTrialN,repeat_practice.thisN,repeat_practice.thisIndex,repeat_practice.ran,task_response.keys,task_response.corr,task_response.rt,task_loop.thisRepN,task_loop.thisTrialN,task_loop.thisN,task_loop.thisIndex,task_loop.ran,condition
[],[],10,10,space,11.3845,space,6.9912,0,0,0,0,1,stimuli/slide1.png,30,570780,2022-01-10_14h42.24.985,MemLear_ses-01_part-01_label-phase1,2020.1.3,Win32,60,,,,,,,,,,,,,,,,,,,,,,,,,,,,,,,,,,,,,
,,,,,,space,9.3075,0,1,1,1,1,stimuli/slide2.png,30,570780,2022-01-10_14h42.24.985,MemLear_ses-01_part-01_label-phase1,2020.1.3,Win32,60,,,,,,,,,,,,,,,,,,,,,,,,,,,,,,,,,,,,,
,,,,,,space,20.4929,0,2,2,2,1,stimuli/slide3.png,30,570780,2022-01-10_14h42.24.985,MemLear_ses-01_part-01_label-phase1,2020.1.3,Win32,60,,,,,,,,,,,,,,,,,,,,,,,,,,,,,,,,,,,,,
,,,,,,space,43.4897,0,3,3,3,1,stimuli/slide4.png,30,570780,2022-01-10_14h42.24.985,MemLear_ses-01_part-01_label-phase1,2020.1.3,Win32,60,,,,,,,,,,,,,,,,,,,,,,,,,,,,,,,,,,,,,
,,,,,,space,69.0277,0,4,4,4,1,stimuli/slide5.png,30,570780,2022-01-10_14h42.24.985,MemLear_ses-01_part-01_label-phase1,2020.1.3,Win32,60,,,,,,,,,,,,,,,,,,,,,,,,,,,,,,,,,,,,,
,,,,,,space,6.0089,0,5,5,5,1,stimuli/slide6.png,30,570780,2022-01-10_14h42.24.985,MemLear_ses-01_part-01_label-phase1,2020.1.3,Win32,60,,,,,,,,,,,,,,,,,,,,,,,,,,,,,,,,,,,,,
1,[],,,,,,,,,,,,,30,570780,2022-01-10_14h42.24.985,MemLear_ses-01_part-01_label-phase1,2020.1.3,Win32,60,space,18.777,1,1,1.1913,1,0,0,0,0,1,stimuli/m_red.jpg,stimuli/Food.png,stimuli/Gamestoy & entertainment.png,stimuli/Vehicle.png,stimuli/Clothing.png,1,Food,1,1,stimuli/objects/chocolatecroissant.jpg,,,,,,,,,,,,,,,,
0,[1],,,,,,,,,,,,,30,570780,2022-01-10_14h42.24.985,MemLear_ses-01_part-01_label-phase1,2020.1.3,Win32,60,,,2,0,0.8119,1,0,1,1,1,1,stimuli/m_red.jpg,stimuli/Clothing.png,stimuli/Food.png,stimuli/Gamestoy & entertainment.png,stimuli/Vehicle.png,0,Vehicle,4,0,stimuli/objects/tricycle.jpg,,,,,,,,,,,,,,,,
0,[1],,,,,,,,,,,,,30,570780,2022-01-10_14h42.24.985,MemLear_ses-01_part-01_label-phase1,2020.1.3,Win32,60,,,3,0,1.0304,1,0,2,2,2,1,stimuli/m_blue.jpg,stimuli/Vehicle.png,stimuli/Clothing.png,stimuli/Gamestoy & entertainment.png,stimuli/Food.png,0,Food,4,0,stimuli/objects/cracker02.jpg,,,,,,,,,,,,,,,,
1,[1],,,,,,,,,,,,,30,570780,2022-01-10_14h42.24.985,MemLear_ses-01_part-01_label-phase1,2020.1.3,Win32,60,,,4,1,2.0258,1,0,3,3,3,1,stimuli/m_red.jpg,stimuli/Clothing.png,stimuli/Vehicle.png,stimuli/Gamestoy & entertainment.png,stimuli/Food.png,1,Food,4,1,stimuli/objects/hotdog.jpg,,,,,,,,,,,,,,,,
1,"[1,1]",,,,,,,,,,,,,30,570780,2022-01-10_14h42.24.985,MemLear_ses-01_part-01_label-phase1,2020.1.3,Win32,60,,,3,1,1.0427,1,0,4,4,4,1,stimuli/m_red.jpg,stimuli/Clothing.png,stimuli/Gamestoy & entertainment.png,stimuli/Food.png,stimuli/Vehicle.png,1,Food,3,1,stimuli/objects/kiwi03.jpg,,,,,,,,,,,,,,,,
1,"[1,1,1]",,,,,,,,,,,,,30,570780,2022-01-10_14h42.24.985,MemLear_ses-01_part-01_label-phase1,2020.1.3,Win32,60,,,3,1,0.7107,1,0,5,5,5,1,stimuli/m_red.jpg,stimuli/Vehicle.png,stimuli/Gamestoy & entertainment.png,stimuli/Food.png,stimuli/Clothing.png,1,Food,3,1,stimuli/objects/greenolive.jpg,,,,,,,,,,,,,,,,
0,"[1,1,1,1]",,,,,,,,,,,,,30,570780,2022-01-10_14h42.24.985,MemLear_ses-01_part-01_label-phase1,2020.1.3,Win32,60,,,2,0,2.9018,0,0,6,6,6,1,stimuli/m_blue.jpg,stimuli/Food.png,stimuli/Clothing.png,stimuli/Vehicle.png,stimuli/Gamestoy & entertainment.png,1,Gamestoy & entertainment,4,1,stimuli/objects/paperairplane.jpg,,,,,,,,,,,,,,,,
1,"[1,1,1,1,0]",,,,,,,,,,,,,30,570780,2022-01-10_14h42.24.985,MemLear_ses-01_part-01_label-phase1,2020.1.3,Win32,60,,,2,1,2.4424,1,0,7,7,7,1,stimuli/m_blue.jpg,stimuli/Vehicle.png,stimuli/Gamestoy & entertainment.png,stimuli/Food.png,stimuli/Clothing.png,1,Gamestoy & entertainment,2,1,stimuli/objects/toyanimal02.jpg,,,,,,,,,,,,,,,,
1,"[1,1,1,1,0,1]",,,,,,,,,,,,,30,570780,2022-01-10_14h42.24.985,MemLear_ses-01_part-01_label-phase1,2020.1.3,Win32,60,,,4,1,0.8736,1,0,8,8,8,1,stimuli/m_red.jpg,stimuli/Vehicle.png,stimuli/Clothing.png,stimuli/Gamestoy & entertainment.png,stimuli/Food.png,1,Food,4,1,stimuli/objects/casabamelon.jpg,,,,,,,,,,,,,,,,
1,"[1,1,1,1,0,1,1]",,,,,,,,,,,,,30,570780,2022-01-10_14h42.24.985,MemLear_ses-01_part-01_label-phase1,2020.1.3,Win32,60,,,1,1,1.9071,1,0,9,9,9,1,stimuli/m_blue.jpg,stimuli/Gamestoy & entertainment.png,stimuli/Clothing.png,stimuli/Vehicle.png,stimuli/Food.png,1,Gamestoy & entertainment,1,1,stimuli/objects/paddleball.jpg,,,,,,,,,,,,,,,,
1,"[1,1,1,1,0,1,1,1]",,,,,,,,,,,,,30,570780,2022-01-10_14h42.24.985,MemLear_ses-01_part-01_label-phase1,2020.1.3,Win32,60,,,1,1,1.0526,1,0,10,10,10,1,stimuli/m_blue.jpg,stimuli/Gamestoy & entertainment.png,stimuli/Clothing.png,stimuli/Food.png,stimuli/Vehicle.png,1,Gamestoy & entertainment,1,1,stimuli/objects/rockinghorse.jpg,,,,,,,,,,,,,,,,
1,"[1,1,1,1,0,1,1,1,1]",,,,,,,,,,,,,30,570780,2022-01-10_14h42.24.985,MemLear_ses-01_part-01_label-phase1,2020.1.3,Win32,60,,,2,1,1.2854,1,0,11,11,11,1,stimuli/m_red.jpg,stimuli/Vehicle.png,stimuli/Food.png,stimuli/Clothing.png,stimuli/Gamestoy & entertainment.png,1,Food,2,1,stimuli/objects/arugula.jpg,,,,,,,,,,,,,,,,
,,,,,,,,,,,,,,30,570780,2022-01-10_14h42.24.985,MemLear_ses-01_part-01_label-phase1,2020.1.3,Win32,60,,,,,,,,,,,,,,,,,,,,,,n,132.216,0,0,0,0,1,,,,,,,,,
,,,,,,,,,,,,,,30,570780,2022-01-10_14h42.24.985,MemLear_ses-01_part-01_label-phase1,2020.1.3,Win32,60,,,,,,,,,,,,stimuli/m_black.jpg,stimuli/Electronic device & accessory.png,stimuli/Hand labour tool & accessory.png,stimuli/Kitchen & utensil.png,stimuli/Outdoor activity & sport item.png,,Electronic device & accessory,1,0,stimuli/objects/electricoutlet.jpg,,,,,,,,3,0,1.1807,0,0,0,0,1,1
,,,,,,,,,,,,,,30,570780,2022-01-10_14h42.24.985,MemLear_ses-01_part-01_label-phase1,2020.1.3,Win32,60,,,,,,,,,,,,stimuli/m_black.jpg,stimuli/Kitchen & utensil.png,stimuli/Outdoor activity & sport item.png,stimuli/Electronic device & accessory.png,stimuli/Hand labour tool & accessory.png,,Kitchen & utensil,1,1,stimuli/objects/chocolatefonduedish.jpg,,,,,,,,1,1,1.3391,0,1,1,1,1,1
,,,,,,,,,,,,,,30,570780,2022-01-10_14h42.24.985,MemLear_ses-01_part-01_label-phase1,2020.1.3,Win32,60,,,,,,,,,,,,stimuli/m_orange.jpg,stimuli/Outdoor activity & sport item.png,stimuli/Hand labour tool & accessory.png,stimuli/Electronic device & accessory.png,stimuli/Kitchen & utensil.png,,Outdoor activity & sport item,1,0,stimuli/objects/toyhockeystick01.jpg,,,,,,,,2,0,1.1444,0,2,2,2,1,0
,,,,,,,,,,,,,,30,570780,2022-01-10_14h42.24.985,MemLear_ses-01_part-01_label-phase1,2020.1.3,Win32,60,,,,,,,,,,,,stimuli/m_orange.jpg,stimuli/Electronic device & accessory.png,stimuli/Kitchen & utensil.png,stimuli/Hand labour tool & accessory.png,stimuli/Outdoor activity & sport item.png,,Electronic device & accessory,1,1,stimuli/objects/alarmsystem.jpg,,,,,,,,4,0,1.7348,0,3,3,3,1,0
,,,,,,,,,,,,,,30,570780,2022-01-10_14h42.24.985,MemLear_ses-01_part-01_label-phase1,2020.1.3,Win32,60,,,,,,,,,,,,stimuli/m_black.jpg,stimuli/Electronic device & accessory.png,stimuli/Kitchen & utensil.png,stimuli/Hand labour tool & accessory.png,stimuli/Outdoor activity & sport item.png,,Kitchen & utensil,2,1,stimuli/objects/pastaspoon.jpg,,,,,,,,2,1,2.6469,0,4,4,4,1,1
,,,,,,,,,,,,,,30,570780,2022-01-10_14h42.24.985,MemLear_ses-01_part-01_label-phase1,2020.1.3,Win32,60,,,,,,,,,,,,stimuli/m_black.jpg,stimuli/Hand labour tool & accessory.png,stimuli/Electronic device & accessory.png,stimuli/Outdoor activity & sport item.png,stimuli/Kitchen & utensil.png,,Hand labour tool & accessory,1,0,stimuli/objects/caulking.jpg,,,,,,,,4,0,1.1854,0,5,5,5,1,1
,,,,,,,,,,,,,,30,570780,2022-01-10_14h42.24.985,MemLear_ses-01_part-01_label-phase1,2020.1.3,Win32,60,,,,,,,,,,,,stimuli/m_black.jpg,stimuli/Kitchen & utensil.png,stimuli/Hand labour tool & accessory.png,stimuli/Electronic device & accessory.png,stimuli/Outdoor activity & sport item.png,,Electronic device & accessory,3,0,stimuli/objects/lamp04a.jpg,,,,,,,,1,0,0.5278,0,6,6,6,1,1
,,,,,,,,,,,,,,30,570780,2022-01-10_14h42.24.985,MemLear_ses-01_part-01_label-phase1,2020.1.3,Win32,60,,,,,,,,,,,,stimuli/m_orange.jpg,stimuli/Hand labour tool & accessory.png,stimuli/Outdoor activity & sport item.png,stimuli/Kitchen & utensil.png,stimuli/Electronic device & accessory.png,,Electronic device & accessory,4,1,stimuli/objects/desktopcomputer.jpg,,,,,,,,2,0,1.532,0,7,7,7,1,0
,,,,,,,,,,,,,,30,570780,2022-01-10_14h42.24.985,MemLear_ses-01_part-01_label-phase1,2020.1.3,Win32,60,,,,,,,,,,,,stimuli/m_orange.jpg,stimuli/Hand labour tool & accessory.png,stimuli/Kitchen & utensil.png,stimuli/Outdoor activity & sport item.png,stimuli/Electronic device & accessory.png,,Electronic device & accessory,4,1,stimuli/objects/nintendods.jpg,,,,,,,,4,1,1.9666,0,8,8,8,1,0
,,,,,,,,,,,,,,30,570780,2022-01-10_14h42.24.985,MemLear_ses-01_part-01_label-phase1,2020.1.3,Win32,60,,,,,,,,,,,,stimuli/m_black.jpg,stimuli/Outdoor activity & sport item.png,stimuli/Electronic device & accessory.png,stimuli/Hand labour tool & accessory.png,stimuli/Kitchen & utensil.png,,Kitchen & utensil,4,1,stimuli/objects/kitchenscale01a.jpg,,,,,,,,2,0,1.4317,0,9,9,9,1,1
,,,,,,,,,,,,,,30,570780,2022-01-10_14h42.24.985,MemLear_ses-01_part-01_label-phase1,2020.1.3,Win32,60,,,,,,,,,,,,stimuli/m_black.jpg,stimuli/Electronic device & accessory.png,stimuli/Outdoor activity & sport item.png,stimuli/Hand labour tool & accessory.png,stimuli/Kitchen & utensil.png,,Kitchen & utensil,4,1,stimuli/objects/servingspoon01.jpg,,,,,,,,3,0,3.3173,0,10,10,10,1,1
,,,,,,,,,,,,,,30,570780,2022-01-10_14h42.24.985,MemLear_ses-01_part-01_label-phase1,2020.1.3,Win32,60,,,,,,,,,,,,stimuli/m_orange.jpg,stimuli/Kitchen & utensil.png,stimuli/Outdoor activity & sport item.png,stimuli/Electronic device & accessory.png,stimuli/Hand labour tool & accessory.png,,Electronic device & accessory,3,1,stimuli/objects/videocamera01a.jpg,,,,,,,,,0,,0,11,11,11,1,0
,,,,,,,,,,,,,,30,570780,2022-01-10_14h42.24.985,MemLear_ses-01_part-01_label-phase1,2020.1.3,Win32,60,,,,,,,,,,,,stimuli/m_black.jpg,stimuli/Hand labour tool & accessory.png,stimuli/Kitchen & utensil.png,stimuli/Electronic device & accessory.png,stimuli/Outdoor activity & sport item.png,,Kitchen & utensil,2,1,stimuli/objects/coffeepot03a.jpg,,,,,,,,2,1,1.4218,0,12,12,12,1,1
,,,,,,,,,,,,,,30,570780,2022-01-10_14h42.24.985,MemLear_ses-01_part-01_label-phase1,2020.1.3,Win32,60,,,,,,,,,,,,stimuli/m_orange.jpg,stimuli/Hand labour tool & accessory.png,stimuli/Electronic device & accessory.png,stimuli/Outdoor activity & sport item.png,stimuli/Kitchen & utensil.png,,Hand labour tool & accessory,1,0,stimuli/objects/lawnmower.jpg,,,,,,,,2,0,1.1658,0,13,13,13,1,0
,,,,,,,,,,,,,,30,570780,2022-01-10_14h42.24.985,MemLear_ses-01_part-01_label-phase1,2020.1.3,Win32,60,,,,,,,,,,,,stimuli/m_orange.jpg,stimuli/Hand labour tool & accessory.png,stimuli/Electronic device & accessory.png,stimuli/Kitchen & utensil.png,stimuli/Outdoor activity & sport item.png,,Hand labour tool & accessory,1,0,stimuli/objects/boltcutter.jpg,,,,,,,,1,1,1.652,0,14,14,14,1,0
,,,,,,,,,,,,,,30,570780,2022-01-10_14h42.24.985,MemLear_ses-01_part-01_label-phase1,2020.1.3,Win32,60,,,,,,,,,,,,stimuli/m_orange.jpg,stimuli/Outdoor activity & sport item.png,stimuli/Kitchen & utensil.png,stimuli/Hand labour tool & accessory.png,stimuli/Electronic device & accessory.png,,Electronic device & accessory,4,1,stimuli/objects/lectern01.jpg,,,,,,,,1,0,1.7829,0,15,15,15,1,0
,,,,,,,,,,,,,,30,570780,2022-01-10_14h42.24.985,MemLear_ses-01_part-01_label-phase1,2020.1.3,Win32,60,,,,,,,,,,,,stimuli/m_orange.jpg,stimuli/Electronic device & accessory.png,stimuli/Kitchen & utensil.png,stimuli/Outdoor activity & sport item.png,stimuli/Hand labour tool & accessory.png,,Electronic device & accessory,1,1,stimuli/objects/coffeemachine.jpg,,,,,,,,1,1,2.919,0,16,16,16,1,0
,,,,,,,,,,,,,,30,570780,2022-01-10_14h42.24.985,MemLear_ses-01_part-01_label-phase1,2020.1.3,Win32,60,,,,,,,,,,,,stimuli/m_black.jpg,stimuli/Kitchen & utensil.png,stimuli/Electronic device & accessory.png,stimuli/Outdoor activity & sport item.png,stimuli/Hand labour tool & accessory.png,,Kitchen & utensil,1,1,stimuli/objects/cowbell.jpg,,,,,,,,1,1,1.2045,0,17,17,17,1,1
,,,,,,,,,,,,,,30,570780,2022-01-10_14h42.24.985,MemLear_ses-01_part-01_label-phase1,2020.1.3,Win32,60,,,,,,,,,,,,stimuli/m_black.jpg,stimuli/Electronic device & accessory.png,stimuli/Outdoor activity & sport item.png,stimuli/Kitchen & utensil.png,stimuli/Hand labour tool & accessory.png,,Kitchen & utensil,3,1,stimuli/objects/bottlecap.jpg,,,,,,,,3,1,1.6653,0,18,18,18,1,1
,,,,,,,,,,,,,,30,570780,2022-01-10_14h42.24.985,MemLear_ses-01_part-01_label-phase1,2020.1.3,Win32,60,,,,,,,,,,,,stimuli/m_black.jpg,stimuli/Outdoor activity & sport item.png,stimuli/Kitchen & utensil.png,stimuli/Hand labour tool & accessory.png,stimuli/Electronic device & accessory.png,,Kitchen & utensil,2,1,stimuli/objects/oven.jpg,,,,,,,,2,1,2.5246,0,19,19,19,1,1
,,,,,,,,,,,,,,30,570780,2022-01-10_14h42.24.985,MemLear_ses-01_part-01_label-phase1,2020.1.3,Win32,60,,,,,,,,,,,,stimuli/m_black.jpg,stimuli/Kitchen & utensil.png,stimuli/Electronic device & accessory.png,stimuli/Outdoor activity & sport item.png,stimuli/Hand labour tool & accessory.png,,Kitchen & utensil,1,1,stimuli/objects/tupperware03a.jpg,,,,,,,,1,1,1.1758,0,20,20,20,1,1
,,,,,,,,,,,,,,30,570780,2022-01-10_14h42.24.985,MemLear_ses-01_part-01_label-phase1,2020.1.3,Win32,60,,,,,,,,,,,,stimuli/m_black.jpg,stimuli/Electronic device & accessory.png,stimuli/Hand labour tool & accessory.png,stimuli/Kitchen & utensil.png,stimuli/Outdoor activity & sport item.png,,Kitchen & utensil,3,1,stimuli/objects/bowl02a.jpg,,,,,,,,3,1,1.2367,0,21,21,21,1,1
,,,,,,,,,,,,,,30,570780,2022-01-10_14h42.24.985,MemLear_ses-01_part-01_label-phase1,2020.1.3,Win32,60,,,,,,,,,,,,stimuli/m_orange.jpg,stimuli/Electronic device & accessory.png,stimuli/Hand labour tool & accessory.png,stimuli/Outdoor activity & sport item.png,stimuli/Kitchen & utensil.png,,Electronic device & accessory,1,1,stimuli/objects/scanner.jpg,,,,,,,,2,0,1.2164,0,22,22,22,1,0
,,,,,,,,,,,,,,30,570780,2022-01-10_14h42.24.985,MemLear_ses-01_part-01_label-phase1,2020.1.3,Win32,60,,,,,,,,,,,,stimuli/m_orange.jpg,stimuli/Kitchen & utensil.png,stimuli/Outdoor activity & sport item.png,stimuli/Electronic device & accessory.png,stimuli/Hand labour tool & accessory.png,,Electronic device & accessory,3,1,stimuli/objects/extensioncord.jpg,,,,,,,,3,1,1.016,0,23,23,23,1,0
,,,,,,,,,,,,,,30,570780,2022-01-10_14h42.24.985,MemLear_ses-01_part-01_label-phase1,2020.1.3,Win32,60,,,,,,,,,,,,stimuli/m_orange.jpg,stimuli/Outdoor activity & sport item.png,stimuli/Hand labour tool & accessory.png,stimuli/Kitchen & utensil.png,stimuli/Electronic device & accessory.png,,Electronic device & accessory,4,1,stimuli/objects/expansioncard.jpg,,,,,,,,4,1,1.3912,0,24,24,24,1,0
,,,,,,,,,,,,,,30,570780,2022-01-10_14h42.24.985,MemLear_ses-01_part-01_label-phase1,2020.1.3,Win32,60,,,,,,,,,,,,stimuli/m_orange.jpg,stimuli/Hand labour tool & accessory.png,stimuli/Outdoor activity & sport item.png,stimuli/Electronic device & accessory.png,stimuli/Kitchen & utensil.png,,Electronic device & accessory,3,1,stimuli/objects/gps.jpg,,,,,,,,3,1,1.1149,0,25,25,25,1,0
,,,,,,,,,,,,,,30,570780,2022-01-10_14h42.24.985,MemLear_ses-01_part-01_label-phase1,2020.1.3,Win32,60,,,,,,,,,,,,stimuli/m_black.jpg,stimuli/Hand labour tool & accessory.png,stimuli/Outdoor activity & sport item.png,stimuli/Electronic device & accessory.png,stimuli/Kitchen & utensil.png,,Kitchen & utensil,4,1,stimuli/objects/potatomasher03b.jpg,,,,,,,,4,1,1.0256,0,26,26,26,1,1
,,,,,,,,,,,,,,30,570780,2022-01-10_14h42.24.985,MemLear_ses-01_part-01_label-phase1,2020.1.3,Win32,60,,,,,,,,,,,,stimuli/m_black.jpg,stimuli/Electronic device & accessory.png,stimuli/Hand labour tool & accessory.png,stimuli/Kitchen & utensil.png,stimuli/Outdoor activity & sport item.png,,Electronic device & accessory,1,0,stimuli/objects/heatpump.jpg,,,,,,,,3,0,1.2169,0,27,27,27,1,1
,,,,,,,,,,,,,,30,570780,2022-01-10_14h42.24.985,MemLear_ses-01_part-01_label-phase1,2020.1.3,Win32,60,,,,,,,,,,,,stimuli/m_orange.jpg,stimuli/Outdoor activity & sport item.png,stimuli/Kitchen & utensil.png,stimuli/Electronic device & accessory.png,stimuli/Hand labour tool & accessory.png,,Outdoor activity & sport item,1,0,stimuli/objects/charcoalbarbecue.jpg,,,,,,,,3,0,1.5538,0,28,28,28,1,0
,,,,,,,,,,,,,,30,570780,2022-01-10_14h42.24.985,MemLear_ses-01_part-01_label-phase1,2020.1.3,Win32,60,,,,,,,,,,,,stimuli/m_orange.jpg,stimuli/Kitchen & utensil.png,stimuli/Electronic device & accessory.png,stimuli/Hand labour tool & accessory.png,stimuli/Outdoor activity & sport item.png,,Electronic device & accessory,2,1,stimuli/objects/powercable.jpg,,,,,,,,2,1,0.6361,0,29,29,29,1,0
,,,,,,,,,,,,,,30,570780,2022-01-10_14h42.24.985,MemLear_ses-01_part-01_label-phase1,2020.1.3,Win32,60,,,,,,,,,,,,stimuli/m_orange.jpg,stimuli/Kitchen & utensil.png,stimuli/Hand labour tool & accessory.png,stimuli/Outdoor activity & sport item.png,stimuli/Electronic device & accessory.png,,Electronic device & accessory,4,1,stimuli/objects/taperecorder.jpg,,,,,,,,4,1,0.9785,0,30,30,30,1,0
,,,,,,,,,,,,,,30,570780,2022-01-10_14h42.24.985,MemLear_ses-01_part-01_label-phase1,2020.1.3,Win32,60,,,,,,,,,,,,stimuli/m_orange.jpg,stimuli/Outdoor activity & sport item.png,stimuli/Electronic device & accessory.png,stimuli/Hand labour tool & accessory.png,stimuli/Kitchen & utensil.png,,Electronic device & accessory,2,1,stimuli/objects/usbkey.jpg,,,,,,,,3,0,1.5997,0,31,31,31,1,0
,,,,,,,,,,,,,,30,570780,2022-01-10_14h42.24.985,MemLear_ses-01_part-01_label-phase1,2020.1.3,Win32,60,,,,,,,,,,,,stimuli/m_orange.jpg,stimuli/Electronic device & accessory.png,stimuli/Outdoor activity & sport item.png,stimuli/Hand labour tool & accessory.png,stimuli/Kitchen & utensil.png,,Electronic device & accessory,1,1,stimuli/objects/crocodileclips.jpg,,,,,,,,1,1,0.8886,0,32,32,32,1,0
,,,,,,,,,,,,,,30,570780,2022-01-10_14h42.24.985,MemLear_ses-01_part-01_label-phase1,2020.1.3,Win32,60,,,,,,,,,,,,stimuli/m_orange.jpg,stimuli/Outdoor activity & sport item.png,stimuli/Electronic device & accessory.png,stimuli/Kitchen & utensil.png,stimuli/Hand labour tool & accessory.png,,Electronic device & accessory,2,1,stimuli/objects/walkman.jpg,,,,,,,,2,1,1.8178,0,33,33,33,1,0
,,,,,,,,,,,,,,30,570780,2022-01-10_14h42.24.985,MemLear_ses-01_part-01_label-phase1,2020.1.3,Win32,60,,,,,,,,,,,,stimuli/m_black.jpg,stimuli/Electronic device & accessory.png,stimuli/Outdoor activity & sport item.png,stimuli/Kitchen & utensil.png,stimuli/Hand labour tool & accessory.png,,Electronic device & accessory,1,0,stimuli/objects/carlighter02.jpg,,,,,,,,3,0,0.774,0,34,34,34,1,1
,,,,,,,,,,,,,,30,570780,2022-01-10_14h42.24.985,MemLear_ses-01_part-01_label-phase1,2020.1.3,Win32,60,,,,,,,,,,,,stimuli/m_black.jpg,stimuli/Outdoor activity & sport item.png,stimuli/Kitchen & utensil.png,stimuli/Electronic device & accessory.png,stimuli/Hand labour tool & accessory.png,,Kitchen & utensil,2,1,stimuli/objects/martiniglass01b.jpg,,,,,,,,2,1,0.9923,0,35,35,35,1,1
,,,,,,,,,,,,,,30,570780,2022-01-10_14h42.24.985,MemLear_ses-01_part-01_label-phase1,2020.1.3,Win32,60,,,,,,,,,,,,stimuli/m_orange.jpg,stimuli/Outdoor activity & sport item.png,stimuli/Electronic device & accessory.png,stimuli/Hand labour tool & accessory.png,stimuli/Kitchen & utensil.png,,Hand labour tool & accessory,3,0,stimuli/objects/tablesaw.jpg,,,,,,,,2,0,1.693,0,36,36,36,1,0
,,,,,,,,,,,,,,30,570780,2022-01-10_14h42.24.985,MemLear_ses-01_part-01_label-phase1,2020.1.3,Win32,60,,,,,,,,,,,,stimuli/m_black.jpg,stimuli/Electronic device & accessory.png,stimuli/Hand labour tool & accessory.png,stimuli/Outdoor activity & sport item.png,stimuli/Kitchen & utensil.png,,Outdoor activity & sport item,3,0,stimuli/objects/umbrella04.jpg,,,,,,,,4,0,0.5734,0,37,37,37,1,1
,,,,,,,,,,,,,,30,570780,2022-01-10_14h42.24.985,MemLear_ses-01_part-01_label-phase1,2020.1.3,Win32,60,,,,,,,,,,,,stimuli/m_orange.jpg,stimuli/Kitchen & utensil.png,stimuli/Outdoor activity & sport item.png,stimuli/Hand labour tool & accessory.png,stimuli/Electronic device & accessory.png,,Electronic device & accessory,4,1,stimuli/objects/djmixer02.jpg,,,,,,,,2,0,1.4061,0,38,38,38,1,0
,,,,,,,,,,,,,,30,570780,2022-01-10_14h42.24.985,MemLear_ses-01_part-01_label-phase1,2020.1.3,Win32,60,,,,,,,,,,,,stimuli/m_orange.jpg,stimuli/Hand labour tool & accessory.png,stimuli/Kitchen & utensil.png,stimuli/Electronic device & accessory.png,stimuli/Outdoor activity & sport item.png,,Kitchen & utensil,2,0,stimuli/objects/cakeplatter.jpg,,,,,,,,3,0,1.7091,0,39,39,39,1,0
,,,,,,,,,,,,,,30,570780,2022-01-10_14h42.24.985,MemLear_ses-01_part-01_label-phase1,2020.1.3,Win32,60,,,,,,,,,,,,stimuli/m_orange.jpg,stimuli/Electronic device & accessory.png,stimuli/Hand labour tool & accessory.png,stimuli/Kitchen & utensil.png,stimuli/Outdoor activity & sport item.png,,Electronic device & accessory,1,1,stimuli/objects/computerkeyboard02.jpg,,,,,,,,1,1,1.6937,0,40,40,40,1,0
,,,,,,,,,,,,,,30,570780,2022-01-10_14h42.24.985,MemLear_ses-01_part-01_label-phase1,2020.1.3,Win32,60,,,,,,,,,,,,stimuli/m_black.jpg,stimuli/Hand labour tool & accessory.png,stimuli/Electronic device & accessory.png,stimuli/Kitchen & utensil.png,stimuli/Outdoor activity & sport item.png,,Kitchen & utensil,3,1,stimuli/objects/spatula04.jpg,,,,,,,,2,0,1.4067,0,41,41,41,1,1
,,,,,,,,,,,,,,30,570780,2022-01-10_14h42.24.985,MemLear_ses-01_part-01_label-phase1,2020.1.3,Win32,60,,,,,,,,,,,,stimuli/m_orange.jpg,stimuli/Outdoor activity & sport item.png,stimuli/Kitchen & utensil.png,stimuli/Electronic device & accessory.png,stimuli/Hand labour tool & accessory.png,,Electronic device & accessory,3,1,stimuli/objects/faxmachine.jpg,,,,,,,,3,1,1.0347,0,42,42,42,1,0
,,,,,,,,,,,,,,30,570780,2022-01-10_14h42.24.985,MemLear_ses-01_part-01_label-phase1,2020.1.3,Win32,60,,,,,,,,,,,,stimuli/m_black.jpg,stimuli/Hand labour tool & accessory.png,stimuli/Kitchen & utensil.png,stimuli/Outdoor activity & sport item.png,stimuli/Electronic device & accessory.png,,Kitchen & utensil,2,1,stimuli/objects/measuringspoon.jpg,,,,,,,,2,1,0.9983,0,43,43,43,1,1
,,,,,,,,,,,,,,30,570780,2022-01-10_14h42.24.985,MemLear_ses-01_part-01_label-phase1,2020.1.3,Win32,60,,,,,,,,,,,,stimuli/m_orange.jpg,stimuli/Kitchen & utensil.png,stimuli/Hand labour tool & accessory.png,stimuli/Electronic device & accessory.png,stimuli/Outdoor activity & sport item.png,,Kitchen & utensil,1,0,stimuli/objects/freezer02.jpg,,,,,,,,3,0,0.9331,0,44,44,44,1,0
,,,,,,,,,,,,,,30,570780,2022-01-10_14h42.24.985,MemLear_ses-01_part-01_label-phase1,2020.1.3,Win32,60,,,,,,,,,,,,stimuli/m_orange.jpg,stimuli/Kitchen & utensil.png,stimuli/Electronic device & accessory.png,stimuli/Hand labour tool & accessory.png,stimuli/Outdoor activity & sport item.png,,Electronic device & accessory,2,1,stimuli/objects/lightswitch01.jpg,,,,,,,,2,1,1.146,0,45,45,45,1,0
,,,,,,,,,,,,,,30,570780,2022-01-10_14h42.24.985,MemLear_ses-01_part-01_label-phase1,2020.1.3,Win32,60,,,,,,,,,,,,stimuli/m_black.jpg,stimuli/Kitchen & utensil.png,stimuli/Hand labour tool & accessory.png,stimuli/Outdoor activity & sport item.png,stimuli/Electronic device & accessory.png,,Kitchen & utensil,1,1,stimuli/objects/cleaver01.jpg,,,,,,,,1,1,2.5999,0,46,46,46,1,1
,,,,,,,,,,,,,,30,570780,2022-01-10_14h42.24.985,MemLear_ses-01_part-01_label-phase1,2020.1.3,Win32,60,,,,,,,,,,,,stimuli/m_orange.jpg,stimuli/Hand labour tool & accessory.png,stimuli/Electronic device & accessory.png,stimuli/Kitchen & utensil.png,stimuli/Outdoor activity & sport item.png,,Outdoor activity & sport item,4,0,stimuli/objects/kneepad01c.jpg,,,,,,,,2,0,0.8261,0,47,47,47,1,0
,,,,,,,,,,,,,,30,570780,2022-01-10_14h42.24.985,MemLear_ses-01_part-01_label-phase1,2020.1.3,Win32,60,,,,,,,,,,,,stimuli/m_orange.jpg,stimuli/Hand labour tool & accessory.png,stimuli/Kitchen & utensil.png,stimuli/Outdoor activity & sport item.png,stimuli/Electronic device & accessory.png,,Electronic device & accessory,4,1,stimuli/objects/photocopier.jpg,,,,,,,,3,0,3.1384,0,48,48,48,1,0
,,,,,,,,,,,,,,30,570780,2022-01-10_14h42.24.985,MemLear_ses-01_part-01_label-phase1,2020.1.3,Win32,60,,,,,,,,,,,,stimuli/m_orange.jpg,stimuli/Electronic device & accessory.png,stimuli/Outdoor activity & sport item.png,stimuli/Kitchen & utensil.png,stimuli/Hand labour tool & accessory.png,,Kitchen & utensil,3,0,stimuli/objects/fryingpan02a.jpg,,,,,,,,2,0,1.7791,0,49,49,49,1,0
,,,,,,,,,,,,,,30,570780,2022-01-10_14h42.24.985,MemLear_ses-01_part-01_label-phase1,2020.1.3,Win32,60,,,,,,,,,,,,stimuli/m_black.jpg,stimuli/Outdoor activity & sport item.png,stimuli/Hand labour tool & accessory.png,stimuli/Kitchen & utensil.png,stimuli/Electronic device & accessory.png,,Outdoor activity & sport item,1,0,stimuli/objects/backpack01a.jpg,,,,,,,,,0,,0,50,50,50,1,1
,,,,,,,,,,,,,,30,570780,2022-01-10_14h42.24.985,MemLear_ses-01_part-01_label-phase1,2020.1.3,Win32,60,,,,,,,,,,,,stimuli/m_orange.jpg,stimuli/Kitchen & utensil.png,stimuli/Hand labour tool & accessory.png,stimuli/Outdoor activity & sport item.png,stimuli/Electronic device & accessory.png,,Electronic device & accessory,4,1,stimuli/objects/phonejack.jpg,,,,,,,,2,0,0.7646,0,51,51,51,1,0
,,,,,,,,,,,,,,30,570780,2022-01-10_14h42.24.985,MemLear_ses-01_part-01_label-phase1,2020.1.3,Win32,60,,,,,,,,,,,,stimuli/m_orange.jpg,stimuli/Electronic device & accessory.png,stimuli/Outdoor activity & sport item.png,stimuli/Hand labour tool & accessory.png,stimuli/Kitchen & utensil.png,,Electronic device & accessory,1,1,stimuli/objects/chandelier.jpg,,,,,,,,3,0,1.0819,0,52,52,52,1,0
,,,,,,,,,,,,,,30,570780,2022-01-10_14h42.24.985,MemLear_ses-01_part-01_label-phase1,2020.1.3,Win32,60,,,,,,,,,,,,stimuli/m_orange.jpg,stimuli/Hand labour tool & accessory.png,stimuli/Outdoor activity & sport item.png,stimuli/Kitchen & utensil.png,stimuli/Electronic device & accessory.png,,Kitchen & utensil,3,0,stimuli/objects/spatula03.jpg,,,,,,,,2,0,2.5247,0,53,53,53,1,0
,,,,,,,,,,,,,,30,570780,2022-01-10_14h42.24.985,MemLear_ses-01_part-01_label-phase1,2020.1.3,Win32,60,,,,,,,,,,,,stimuli/m_black.jpg,stimuli/Electronic device & accessory.png,stimuli/Outdoor activity & sport item.png,stimuli/Hand labour tool & accessory.png,stimuli/Kitchen & utensil.png,,Kitchen & utensil,4,1,stimuli/objects/canister.jpg,,,,,,,,4,1,1.7655,0,54,54,54,1,1
,,,,,,,,,,,,,,30,570780,2022-01-10_14h42.24.985,MemLear_ses-01_part-01_label-phase1,2020.1.3,Win32,60,,,,,,,,,,,,stimuli/m_orange.jpg,stimuli/Electronic device & accessory.png,stimuli/Kitchen & utensil.png,stimuli/Hand labour tool & accessory.png,stimuli/Outdoor activity & sport item.png,,Electronic device & accessory,1,1,stimuli/objects/cashregister01.jpg,,,,,,,,2,0,2.8529,0,55,55,55,1,0
,,,,,,,,,,,,,,30,570780,2022-01-10_14h42.24.985,MemLear_ses-01_part-01_label-phase1,2020.1.3,Win32,60,,,,,,,,,,,,stimuli/m_orange.jpg,stimuli/Kitchen & utensil.png,stimuli/Hand labour tool & accessory.png,stimuli/Electronic device & accessory.png,stimuli/Outdoor activity & sport item.png,,Hand labour tool & accessory,2,0,stimuli/objects/swissarmyknife01a.jpg,,,,,,,,,0,,0,56,56,56,1,0
,,,,,,,,,,,,,,30,570780,2022-01-10_14h42.24.985,MemLear_ses-01_part-01_label-phase1,2020.1.3,Win32,60,,,,,,,,,,,,stimuli/m_orange.jpg,stimuli/Kitchen & utensil.png,stimuli/Hand labour tool & accessory.png,stimuli/Outdoor activity & sport item.png,stimuli/Electronic device & accessory.png,,Electronic device & accessory,4,1,stimuli/objects/carantenna.jpg,,,,,,,,3,0,1.879,0,57,57,57,1,0
,,,,,,,,,,,,,,30,570780,2022-01-10_14h42.24.985,MemLear_ses-01_part-01_label-phase1,2020.1.3,Win32,60,,,,,,,,,,,,stimuli/m_black.jpg,stimuli/Outdoor activity & sport item.png,stimuli/Kitchen & utensil.png,stimuli/Electronic device & accessory.png,stimuli/Hand labour tool & accessory.png,,Outdoor activity & sport item,1,0,stimuli/objects/bikepump01.jpg,,,,,,,,2,0,1.4883,0,58,58,58,1,1
,,,,,,,,,,,,,,30,570780,2022-01-10_14h42.24.985,MemLear_ses-01_part-01_label-phase1,2020.1.3,Win32,60,,,,,,,,,,,,stimuli/m_orange.jpg,stimuli/Outdoor activity & sport item.png,stimuli/Electronic device & accessory.png,stimuli/Kitchen & utensil.png,stimuli/Hand labour tool & accessory.png,,Electronic device & accessory,2,1,stimuli/objects/telephone01b.jpg,,,,,,,,1,0,1.8829,0,59,59,59,1,0
,,,,,,,,,,,,,,30,570780,2022-01-10_14h42.24.985,MemLear_ses-01_part-01_label-phase1,2020.1.3,Win32,60,,,,,,,,,,,,stimuli/m_black.jpg,stimuli/Hand labour tool & accessory.png,stimuli/Outdoor activity & sport item.png,stimuli/Electronic device & accessory.png,stimuli/Kitchen & utensil.png,,Kitchen & utensil,4,1,stimuli/objects/peeler01.jpg,,,,,,,,4,1,1.5762,0,60,60,60,1,1
,,,,,,,,,,,,,,30,570780,2022-01-10_14h42.24.985,MemLear_ses-01_part-01_label-phase1,2020.1.3,Win32,60,,,,,,,,,,,,stimuli/m_black.jpg,stimuli/Outdoor activity & sport item.png,stimuli/Electronic device & accessory.png,stimuli/Kitchen & utensil.png,stimuli/Hand labour tool & accessory.png,,Kitchen & utensil,3,1,stimuli/objects/fonduefork01.jpg,,,,,,,,3,1,1.6321,0,61,61,61,1,1
,,,,,,,,,,,,,,30,570780,2022-01-10_14h42.24.985,MemLear_ses-01_part-01_label-phase1,2020.1.3,Win32,60,,,,,,,,,,,,stimuli/m_orange.jpg,stimuli/Electronic device & accessory.png,stimuli/Outdoor activity & sport item.png,stimuli/Kitchen & utensil.png,stimuli/Hand labour tool & accessory.png,,Electronic device & accessory,1,1,stimuli/objects/battery02b.jpg,,,,,,,,1,1,1.0576,0,62,62,62,1,0
,,,,,,,,,,,,,,30,570780,2022-01-10_14h42.24.985,MemLear_ses-01_part-01_label-phase1,2020.1.3,Win32,60,,,,,,,,,,,,stimuli/m_orange.jpg,stimuli/Kitchen & utensil.png,stimuli/Outdoor activity & sport item.png,stimuli/Electronic device & accessory.png,stimuli/Hand labour tool & accessory.png,,Hand labour tool & accessory,4,0,stimuli/objects/squeegee01b.jpg,,,,,,,,3,0,1.9027,0,63,63,63,1,0
,,,,,,,,,,,,,,30,570780,2022-01-10_14h42.24.985,MemLear_ses-01_part-01_label-phase1,2020.1.3,Win32,60,,,,,,,,,,,,stimuli/m_black.jpg,stimuli/Electronic device & accessory.png,stimuli/Hand labour tool & accessory.png,stimuli/Outdoor activity & sport item.png,stimuli/Kitchen & utensil.png,,Kitchen & utensil,4,1,stimuli/objects/waterbottle03.jpg,,,,,,,,4,1,1.3744,0,64,64,64,1,1
,,,,,,,,,,,,,,30,570780,2022-01-10_14h42.24.985,MemLear_ses-01_part-01_label-phase1,2020.1.3,Win32,60,,,,,,,,,,,,stimuli/m_black.jpg,stimuli/Outdoor activity & sport item.png,stimuli/Hand labour tool & accessory.png,stimuli/Electronic device & accessory.png,stimuli/Kitchen & utensil.png,,Kitchen & utensil,4,1,stimuli/objects/beermug01a.jpg,,,,,,,,4,1,1.156,0,65,65,65,1,1
,,,,,,,,,,,,,,30,570780,2022-01-10_14h42.24.985,MemLear_ses-01_part-01_label-phase1,2020.1.3,Win32,60,,,,,,,,,,,,stimuli/m_black.jpg,stimuli/Outdoor activity & sport item.png,stimuli/Kitchen & utensil.png,stimuli/Hand labour tool & accessory.png,stimuli/Electronic device & accessory.png,,Kitchen & utensil,2,1,stimuli/objects/icepack.jpg,,,,,,,,2,1,0.7055,0,66,66,66,1,1
,,,,,,,,,,,,,,30,570780,2022-01-10_14h42.24.985,MemLear_ses-01_part-01_label-phase1,2020.1.3,Win32,60,,,,,,,,,,,,stimuli/m_orange.jpg,stimuli/Outdoor activity & sport item.png,stimuli/Electronic device & accessory.png,stimuli/Hand labour tool & accessory.png,stimuli/Kitchen & utensil.png,,Electronic device & accessory,2,1,stimuli/objects/lightbulb01.jpg,,,,,,,,2,1,0.7149,0,67,67,67,1,0
,,,,,,,,,,,,,,30,570780,2022-01-10_14h42.24.985,MemLear_ses-01_part-01_label-phase1,2020.1.3,Win32,60,,,,,,,,,,,,stimuli/m_orange.jpg,stimuli/Hand labour tool & accessory.png,stimuli/Outdoor activity & sport item.png,stimuli/Electronic device & accessory.png,stimuli/Kitchen & utensil.png,,Electronic device & accessory,3,1,stimuli/objects/ipod.jpg,,,,,,,,3,1,1.104,0,68,68,68,1,0
,,,,,,,,,,,,,,30,570780,2022-01-10_14h42.24.985,MemLear_ses-01_part-01_label-phase1,2020.1.3,Win32,60,,,,,,,,,,,,stimuli/m_orange.jpg,stimuli/Kitchen & utensil.png,stimuli/Outdoor activity & sport item.png,stimuli/Hand labour tool & accessory.png,stimuli/Electronic device & accessory.png,,Electronic device & accessory,4,1,stimuli/objects/remotecontrol04.jpg,,,,,,,,3,0,1.5752,0,69,69,69,1,0
,,,,,,,,,,,,,,30,570780,2022-01-10_14h42.24.985,MemLear_ses-01_part-01_label-phase1,2020.1.3,Win32,60,,,,,,,,,,,,stimuli/m_orange.jpg,stimuli/Kitchen & utensil.png,stimuli/Electronic device & accessory.png,stimuli/Outdoor activity & sport item.png,stimuli/Hand labour tool & accessory.png,,Electronic device & accessory,2,1,stimuli/objects/walkietalkie.jpg,,,,,,,,2,1,1.2661,0,70,70,70,1,0
,,,,,,,,,,,,,,30,570780,2022-01-10_14h42.24.985,MemLear_ses-01_part-01_label-phase1,2020.1.3,Win32,60,,,,,,,,,,,,stimuli/m_black.jpg,stimuli/Hand labour tool & accessory.png,stimuli/Electronic device & accessory.png,stimuli/Outdoor activity & sport item.png,stimuli/Kitchen & utensil.png,,Kitchen & utensil,4,1,stimuli/objects/handmixer01d.jpg,,,,,,,,4,1,1.1593,0,71,71,71,1,1
,,,,,,,,,,,,,,30,570780,2022-01-10_14h42.24.985,MemLear_ses-01_part-01_label-phase1,2020.1.3,Win32,60,,,,,,,,,,,,stimuli/m_orange.jpg,stimuli/Kitchen & utensil.png,stimuli/Electronic device & accessory.png,stimuli/Outdoor activity & sport item.png,stimuli/Hand labour tool & accessory.png,,Electronic device & accessory,2,1,stimuli/objects/filmroll.jpg,,,,,,,,2,1,0.7002,0,72,72,72,1,0
,,,,,,,,,,,,,,30,570780,2022-01-10_14h42.24.985,MemLear_ses-01_part-01_label-phase1,2020.1.3,Win32,60,,,,,,,,,,,,stimuli/m_orange.jpg,stimuli/Electronic device & accessory.png,stimuli/Hand labour tool & accessory.png,stimuli/Outdoor activity & sport item.png,stimuli/Kitchen & utensil.png,,Electronic device & accessory,1,1,stimuli/objects/wiicontroller.jpg,,,,,,,,1,1,1.033,0,73,73,73,1,0
,,,,,,,,,,,,,,30,570780,2022-01-10_14h42.24.985,MemLear_ses-01_part-01_label-phase1,2020.1.3,Win32,60,,,,,,,,,,,,stimuli/m_black.jpg,stimuli/Outdoor activity & sport item.png,stimuli/Kitchen & utensil.png,stimuli/Hand labour tool & accessory.png,stimuli/Electronic device & accessory.png,,Outdoor activity & sport item,1,0,stimuli/objects/golfbag.jpg,,,,,,,,4,0,2.1482,0,74,74,74,1,1
,,,,,,,,,,,,,,30,570780,2022-01-10_14h42.24.985,MemLear_ses-01_part-01_label-phase1,2020.1.3,Win32,60,,,,,,,,,,,,stimuli/m_orange.jpg,stimuli/Hand labour tool & accessory.png,stimuli/Outdoor activity & sport item.png,stimuli/Electronic device & accessory.png,stimuli/Kitchen & utensil.png,,Electronic device & accessory,3,1,stimuli/objects/avcable.jpg,,,,,,,,3,1,2.1726,0,75,75,75,1,0
,,,,,,,,,,,,,,30,570780,2022-01-10_14h42.24.985,MemLear_ses-01_part-01_label-phase1,2020.1.3,Win32,60,,,,,,,,,,,,stimuli/m_black.jpg,stimuli/Hand labour tool & accessory.png,stimuli/Electronic device & accessory.png,stimuli/Kitchen & utensil.png,stimuli/Outdoor activity & sport item.png,,Hand labour tool & accessory,1,0,stimuli/objects/snowshovel.jpg,,,,,,,,3,0,1.7577,0,76,76,76,1,1
,,,,,,,,,,,,,,30,570780,2022-01-10_14h42.24.985,MemLear_ses-01_part-01_label-phase1,2020.1.3,Win32,60,,,,,,,,,,,,stimuli/m_black.jpg,stimuli/Electronic device & accessory.png,stimuli/Kitchen & utensil.png,stimuli/Hand labour tool & accessory.png,stimuli/Outdoor activity & sport item.png,,Kitchen & utensil,2,1,stimuli/objects/dishrack.jpg,,,,,,,,2,1,1.3915,0,77,77,77,1,1
,,,,,,,,,,,,,,30,570780,2022-01-10_14h42.24.985,MemLear_ses-01_part-01_label-phase1,2020.1.3,Win32,60,,,,,,,,,,,,stimuli/m_orange.jpg,stimuli/Outdoor activity & sport item.png,stimuli/Kitchen & utensil.png,stimuli/Hand labour tool & accessory.png,stimuli/Electronic device & accessory.png,,Outdoor activity & sport item,1,0,stimuli/objects/surfboard.jpg,,,,,,,,4,0,1.7307,0,78,78,78,1,0
,,,,,,,,,,,,,,30,570780,2022-01-10_14h42.24.985,MemLear_ses-01_part-01_label-phase1,2020.1.3,Win32,60,,,,,,,,,,,,stimuli/m_black.jpg,stimuli/Electronic device & accessory.png,stimuli/Kitchen & utensil.png,stimuli/Hand labour tool & accessory.png,stimuli/Outdoor activity & sport item.png,,Kitchen & utensil,2,1,stimuli/objects/funnel.jpg,,,,,,,,2,1,1.1114,0,79,79,79,1,1
,,,,,,,,,,,,,,30,570780,2022-01-10_14h42.24.985,MemLear_ses-01_part-01_label-phase1,2020.1.3,Win32,60,,,,,,,,,,,,stimuli/m_black.jpg,stimuli/Hand labour tool & accessory.png,stimuli/Kitchen & utensil.png,stimuli/Electronic device & accessory.png,stimuli/Outdoor activity & sport item.png,,Electronic device & accessory,3,0,stimuli/objects/jack.jpg,,,,,,,,2,0,1.1412,0,80,80,80,1,1
,,,,,,,,,,,,,,30,570780,2022-01-10_14h42.24.985,MemLear_ses-01_part-01_label-phase1,2020.1.3,Win32,60,,,,,,,,,,,,stimuli/m_black.jpg,stimuli/Outdoor activity & sport item.png,stimuli/Hand labour tool & accessory.png,stimuli/Electronic device & accessory.png,stimuli/Kitchen & utensil.png,,Outdoor activity & sport item,1,0,stimuli/objects/podium.jpg,,,,,,,,3,0,2.7297,0,81,81,81,1,1
,,,,,,,,,,,,,,30,570780,2022-01-10_14h42.24.985,MemLear_ses-01_part-01_label-phase1,2020.1.3,Win32,60,,,,,,,,,,,,stimuli/m_black.jpg,stimuli/Kitchen & utensil.png,stimuli/Electronic device & accessory.png,stimuli/Hand labour tool & accessory.png,stimuli/Outdoor activity & sport item.png,,Kitchen & utensil,1,1,stimuli/objects/peppermill02b.jpg,,,,,,,,1,1,0.8113,0,82,82,82,1,1
,,,,,,,,,,,,,,30,570780,2022-01-10_14h42.24.985,MemLear_ses-01_part-01_label-phase1,2020.1.3,Win32,60,,,,,,,,,,,,stimuli/m_black.jpg,stimuli/Kitchen & utensil.png,stimuli/Outdoor activity & sport item.png,stimuli/Electronic device & accessory.png,stimuli/Hand labour tool & accessory.png,,Kitchen & utensil,1,1,stimuli/objects/grill.jpg,,,,,,,,1,1,0.909,0,83,83,83,1,1
,,,,,,,,,,,,,,30,570780,2022-01-10_14h42.24.985,MemLear_ses-01_part-01_label-phase1,2020.1.3,Win32,60,,,,,,,,,,,,stimuli/m_black.jpg,stimuli/Electronic device & accessory.png,stimuli/Kitchen & utensil.png,stimuli/Outdoor activity & sport item.png,stimuli/Hand labour tool & accessory.png,,Kitchen & utensil,2,1,stimuli/objects/ramekin01.jpg,,,,,,,,2,1,1.193,0,84,84,84,1,1
,,,,,,,,,,,,,,30,570780,2022-01-10_14h42.24.985,MemLear_ses-01_part-01_label-phase1,2020.1.3,Win32,60,,,,,,,,,,,,stimuli/m_black.jpg,stimuli/Kitchen & utensil.png,stimuli/Outdoor activity & sport item.png,stimuli/Hand labour tool & accessory.png,stimuli/Electronic device & accessory.png,,Kitchen & utensil,1,1,stimuli/objects/pitcher02b.jpg,,,,,,,,1,1,1.2506,0,85,85,85,1,1
,,,,,,,,,,,,,,30,570780,2022-01-10_14h42.24.985,MemLear_ses-01_part-01_label-phase1,2020.1.3,Win32,60,,,,,,,,,,,,stimuli/m_black.jpg,stimuli/Outdoor activity & sport item.png,stimuli/Electronic device & accessory.png,stimuli/Kitchen & utensil.png,stimuli/Hand labour tool & accessory.png,,Kitchen & utensil,3,1,stimuli/objects/shotglass.jpg,,,,,,,,3,1,1.2925,0,86,86,86,1,1
,,,,,,,,,,,,,,30,570780,2022-01-10_14h42.24.985,MemLear_ses-01_part-01_label-phase1,2020.1.3,Win32,60,,,,,,,,,,,,stimuli/m_orange.jpg,stimuli/Hand labour tool & accessory.png,stimuli/Electronic device & accessory.png,stimuli/Outdoor activity & sport item.png,stimuli/Kitchen & utensil.png,,Electronic device & accessory,2,1,stimuli/objects/spotlight.jpg,,,,,,,,2,1,0.9386,0,87,87,87,1,0
,,,,,,,,,,,,,,30,570780,2022-01-10_14h42.24.985,MemLear_ses-01_part-01_label-phase1,2020.1.3,Win32,60,,,,,,,,,,,,stimuli/m_black.jpg,stimuli/Hand labour tool & accessory.png,stimuli/Electronic device & accessory.png,stimuli/Kitchen & utensil.png,stimuli/Outdoor activity & sport item.png,,Outdoor activity & sport item,4,0,stimuli/objects/beachumbrella01.jpg,,,,,,,,3,0,0.9706,0,88,88,88,1,1
,,,,,,,,,,,,,,30,570780,2022-01-10_14h42.24.985,MemLear_ses-01_part-01_label-phase1,2020.1.3,Win32,60,,,,,,,,,,,,stimuli/m_orange.jpg,stimuli/Electronic device & accessory.png,stimuli/Kitchen & utensil.png,stimuli/Hand labour tool & accessory.png,stimuli/Outdoor activity & sport item.png,,Electronic device & accessory,1,1,stimuli/objects/cameracase01a.jpg,,,,,,,,3,0,2.3151,0,89,89,89,1,0
,,,,,,,,,,,,,,30,570780,2022-01-10_14h42.24.985,MemLear_ses-01_part-01_label-phase1,2020.1.3,Win32,60,,,,,,,,,,,,stimuli/m_orange.jpg,stimuli/Outdoor activity & sport item.png,stimuli/Hand labour tool & accessory.png,stimuli/Kitchen & utensil.png,stimuli/Electronic device & accessory.png,,Outdoor activity & sport item,1,0,stimuli/objects/snowshoe.jpg,,,,,,,,1,1,0.8262,0,90,90,90,1,0
,,,,,,,,,,,,,,30,570780,2022-01-10_14h42.24.985,MemLear_ses-01_part-01_label-phase1,2020.1.3,Win32,60,,,,,,,,,,,,stimuli/m_black.jpg,stimuli/Kitchen & utensil.png,stimuli/Hand labour tool & accessory.png,stimuli/Electronic device & accessory.png,stimuli/Outdoor activity & sport item.png,,Hand labour tool & accessory,2,0,stimuli/objects/knifesharpener.jpg,,,,,,,,1,0,1.2169,0,91,91,91,1,1
,,,,,,,,,,,,,,30,570780,2022-01-10_14h42.24.985,MemLear_ses-01_part-01_label-phase1,2020.1.3,Win32,60,,,,,,,,,,,,stimuli/m_orange.jpg,stimuli/Kitchen & utensil.png,stimuli/Electronic device & accessory.png,stimuli/Hand labour tool & accessory.png,stimuli/Outdoor activity & sport item.png,,Electronic device & accessory,2,1,stimuli/objects/filmnegative.jpg,,,,,,,,2,1,0.8238,0,92,92,92,1,0
,,,,,,,,,,,,,,30,570780,2022-01-10_14h42.24.985,MemLear_ses-01_part-01_label-phase1,2020.1.3,Win32,60,,,,,,,,,,,,stimuli/m_black.jpg,stimuli/Kitchen & utensil.png,stimuli/Hand labour tool & accessory.png,stimuli/Outdoor activity & sport item.png,stimuli/Electronic device & accessory.png,,Kitchen & utensil,1,1,stimuli/objects/breadknife.jpg,,,,,,,,1,1,0.6988,0,93,93,93,1,1
,,,,,,,,,,,,,,30,570780,2022-01-10_14h42.24.985,MemLear_ses-01_part-01_label-phase1,2020.1.3,Win32,60,,,,,,,,,,,,stimuli/m_orange.jpg,stimuli/Hand labour tool & accessory.png,stimuli/Kitchen & utensil.png,stimuli/Outdoor activity & sport item.png,stimuli/Electronic device & accessory.png,,Electronic device & accessory,4,1,stimuli/objects/fanheater.jpg,,,,,,,,4,1,2.6053,0,94,94,94,1,0
,,,,,,,,,,,,,,30,570780,2022-01-10_14h42.24.985,MemLear_ses-01_part-01_label-phase1,2020.1.3,Win32,60,,,,,,,,,,,,stimuli/m_black.jpg,stimuli/Hand labour tool & accessory.png,stimuli/Outdoor activity & sport item.png,stimuli/Kitchen & utensil.png,stimuli/Electronic device & accessory.png,,Kitchen & utensil,3,1,stimuli/objects/pot01.jpg,,,,,,,,3,1,1.5358,0,95,95,95,1,1
,,,,,,,,,,,,,,30,570780,2022-01-10_14h42.24.985,MemLear_ses-01_part-01_label-phase1,2020.1.3,Win32,60,,,,,,,,,,,,stimuli/m_orange.jpg,stimuli/Kitchen & utensil.png,stimuli/Electronic device & accessory.png,stimuli/Outdoor activity & sport item.png,stimuli/Hand labour tool & accessory.png,,Electronic device & accessory,2,1,stimuli/objects/securitycamera.jpg,,,,,,,,2,1,1.5493,0,96,96,96,1,0
,,,,,,,,,,,,,,30,570780,2022-01-10_14h42.24.985,MemLear_ses-01_part-01_label-phase1,2020.1.3,Win32,60,,,,,,,,,,,,stimuli/m_orange.jpg,stimuli/Electronic device & accessory.png,stimuli/Hand labour tool & accessory.png,stimuli/Outdoor activity & sport item.png,stimuli/Kitchen & utensil.png,,Outdoor activity & sport item,3,0,stimuli/objects/swimgoggles.jpg,,,,,,,,1,0,1.0507,0,97,97,97,1,0
,,,,,,,,,,,,,,30,570780,2022-01-10_14h42.24.985,MemLear_ses-01_part-01_label-phase1,2020.1.3,Win32,60,,,,,,,,,,,,stimuli/m_black.jpg,stimuli/Hand labour tool & accessory.png,stimuli/Kitchen & utensil.png,stimuli/Outdoor activity & sport item.png,stimuli/Electronic device & accessory.png,,Kitchen & utensil,2,1,stimuli/objects/cookingpot.jpg,,,,,,,,2,1,1.1137,0,98,98,98,1,1
,,,,,,,,,,,,,,30,570780,2022-01-10_14h42.24.985,MemLear_ses-01_part-01_label-phase1,2020.1.3,Win32,60,,,,,,,,,,,,stimuli/m_orange.jpg,stimuli/Electronic device & accessory.png,stimuli/Hand labour tool & accessory.png,stimuli/Kitchen & utensil.png,stimuli/Outdoor activity & sport item.png,,Kitchen & utensil,3,0,stimuli/objects/knife03.jpg,,,,,,,,1,0,1.3692,0,99,99,99,1,0
,,,,,,,,,,,,,,30,570780,2022-01-10_14h42.24.985,MemLear_ses-01_part-01_label-phase1,2020.1.3,Win32,60,,,,,,,,,,,,stimuli/m_black.jpg,stimuli/Kitchen & utensil.png,stimuli/Electronic device & accessory.png,stimuli/Hand labour tool & accessory.png,stimuli/Outdoor activity & sport item.png,,Kitchen & utensil,1,1,stimuli/objects/whisk.jpg,,,,,,,,1,1,1.132,0,100,100,100,1,1
,,,,,,,,,,,,,,30,570780,2022-01-10_14h42.24.985,MemLear_ses-01_part-01_label-phase1,2020.1.3,Win32,60,,,,,,,,,,,,stimuli/m_black.jpg,stimuli/Hand labour tool & accessory.png,stimuli/Outdoor activity & sport item.png,stimuli/Electronic device & accessory.png,stimuli/Kitchen & utensil.png,,Kitchen & utensil,4,1,stimuli/objects/muffintray01.jpg,,,,,,,,4,1,1.9762,0,101,101,101,1,1
,,,,,,,,,,,,,,30,570780,2022-01-10_14h42.24.985,MemLear_ses-01_part-01_label-phase1,2020.1.3,Win32,60,,,,,,,,,,,,stimuli/m_orange.jpg,stimuli/Hand labour tool & accessory.png,stimuli/Electronic device & accessory.png,stimuli/Kitchen & utensil.png,stimuli/Outdoor activity & sport item.png,,Electronic device & accessory,2,1,stimuli/objects/radio01.jpg,,,,,,,,2,1,1.0168,0,102,102,102,1,0
,,,,,,,,,,,,,,30,570780,2022-01-10_14h42.24.985,MemLear_ses-01_part-01_label-phase1,2020.1.3,Win32,60,,,,,,,,,,,,stimuli/m_black.jpg,stimuli/Kitchen & utensil.png,stimuli/Electronic device & accessory.png,stimuli/Outdoor activity & sport item.png,stimuli/Hand labour tool & accessory.png,,Kitchen & utensil,1,1,stimuli/objects/fork03c.jpg,,,,,,,,1,1,1.1061,0,103,103,103,1,1
,,,,,,,,,,,,,,30,570780,2022-01-10_14h42.24.985,MemLear_ses-01_part-01_label-phase1,2020.1.3,Win32,60,,,,,,,,,,,,stimuli/m_orange.jpg,stimuli/Outdoor activity & sport item.png,stimuli/Kitchen & utensil.png,stimuli/Hand labour tool & accessory.png,stimuli/Electronic device & accessory.png,,Electronic device & accessory,4,1,stimuli/objects/audiocablesplitter.jpg,,,,,,,,4,1,3.0119,0,104,104,104,1,0
,,,,,,,,,,,,,,30,570780,2022-01-10_14h42.24.985,MemLear_ses-01_part-01_label-phase1,2020.1.3,Win32,60,,,,,,,,,,,,stimuli/m_black.jpg,stimuli/Hand labour tool & accessory.png,stimuli/Electronic device & accessory.png,stimuli/Outdoor activity & sport item.png,stimuli/Kitchen & utensil.png,,Hand labour tool & accessory,1,0,stimuli/objects/adjustablewrench01b.jpg,,,,,,,,4,0,1.5997,0,105,105,105,1,1
,,,,,,,,,,,,,,30,570780,2022-01-10_14h42.24.985,MemLear_ses-01_part-01_label-phase1,2020.1.3,Win32,60,,,,,,,,,,,,stimuli/m_black.jpg,stimuli/Kitchen & utensil.png,stimuli/Hand labour tool & accessory.png,stimuli/Outdoor activity & sport item.png,stimuli/Electronic device & accessory.png,,Kitchen & utensil,1,1,stimuli/objects/coffeemaker.jpg,,,,,,,,1,1,1.2129,0,106,106,106,1,1
,,,,,,,,,,,,,,30,570780,2022-01-10_14h42.24.985,MemLear_ses-01_part-01_label-phase1,2020.1.3,Win32,60,,,,,,,,,,,,stimuli/m_black.jpg,stimuli/Kitchen & utensil.png,stimuli/Outdoor activity & sport item.png,stimuli/Electronic device & accessory.png,stimuli/Hand labour tool & accessory.png,,Hand labour tool & accessory,4,0,stimuli/objects/painttray.jpg,,,,,,,,1,0,0.8174,0,107,107,107,1,1
,,,,,,,,,,,,,,30,570780,2022-01-10_14h42.24.985,MemLear_ses-01_part-01_label-phase1,2020.1.3,Win32,60,,,,,,,,,,,,stimuli/m_black.jpg,stimuli/Outdoor activity & sport item.png,stimuli/Hand labour tool & accessory.png,stimuli/Kitchen & utensil.png,stimuli/Electronic device & accessory.png,,Kitchen & utensil,3,1,stimuli/objects/saltshaker03a.jpg,,,,,,,,3,1,1.2866,0,108,108,108,1,1
,,,,,,,,,,,,,,30,570780,2022-01-10_14h42.24.985,MemLear_ses-01_part-01_label-phase1,2020.1.3,Win32,60,,,,,,,,,,,,stimuli/m_black.jpg,stimuli/Electronic device & accessory.png,stimuli/Hand labour tool & accessory.png,stimuli/Outdoor activity & sport item.png,stimuli/Kitchen & utensil.png,,Kitchen & utensil,4,1,stimuli/objects/cuttingboard.jpg,,,,,,,,4,1,1.1454,0,109,109,109,1,1
,,,,,,,,,,,,,,30,570780,2022-01-10_14h42.24.985,MemLear_ses-01_part-01_label-phase1,2020.1.3,Win32,60,,,,,,,,,,,,stimuli/m_orange.jpg,stimuli/Outdoor activity & sport item.png,stimuli/Hand labour tool & accessory.png,stimuli/Electronic device & accessory.png,stimuli/Kitchen & utensil.png,,Electronic device & accessory,3,1,stimuli/objects/soundmixer.jpg,,,,,,,,3,1,0.976,0,110,110,110,1,0
,,,,,,,,,,,,,,30,570780,2022-01-10_14h42.24.985,MemLear_ses-01_part-01_label-phase1,2020.1.3,Win32,60,,,,,,,,,,,,stimuli/m_orange.jpg,stimuli/Hand labour tool & accessory.png,stimuli/Kitchen & utensil.png,stimuli/Electronic device & accessory.png,stimuli/Outdoor activity & sport item.png,,Electronic device & accessory,3,1,stimuli/objects/payphone.jpg,,,,,,,,3,1,1.0994,0,111,111,111,1,0
,,,,,,,,,,,,,,30,570780,2022-01-10_14h42.24.985,MemLear_ses-01_part-01_label-phase1,2020.1.3,Win32,60,,,,,,,,,,,,stimuli/m_black.jpg,stimuli/Outdoor activity & sport item.png,stimuli/Electronic device & accessory.png,stimuli/Hand labour tool & accessory.png,stimuli/Kitchen & utensil.png,,Hand labour tool & accessory,3,0,stimuli/objects/cuttingpliers02.jpg,,,,,,,,4,0,1.4983,0,112,112,112,1,1
,,,,,,,,,,,,,,30,570780,2022-01-10_14h42.24.985,MemLear_ses-01_part-01_label-phase1,2020.1.3,Win32,60,,,,,,,,,,,,stimuli/m_orange.jpg,stimuli/Hand labour tool & accessory.png,stimuli/Electronic device & accessory.png,stimuli/Outdoor activity & sport item.png,stimuli/Kitchen & utensil.png,,Hand labour tool & accessory,1,0,stimuli/objects/wateringcan.jpg,,,,,,,,2,0,1.0117,0,113,113,113,1,0
,,,,,,,,,,,,,,30,570780,2022-01-10_14h42.24.985,MemLear_ses-01_part-01_label-phase1,2020.1.3,Win32,60,,,,,,,,,,,,stimuli/m_black.jpg,stimuli/Kitchen & utensil.png,stimuli/Electronic device & accessory.png,stimuli/Hand labour tool & accessory.png,stimuli/Outdoor activity & sport item.png,,Kitchen & utensil,1,1,stimuli/objects/toasteroven.jpg,,,,,,,,1,1,0.979,0,114,114,114,1,1
,,,,,,,,,,,,,,30,570780,2022-01-10_14h42.24.985,MemLear_ses-01_part-01_label-phase1,2020.1.3,Win32,60,,,,,,,,,,,,stimuli/m_black.jpg,stimuli/Hand labour tool & accessory.png,stimuli/Kitchen & utensil.png,stimuli/Outdoor activity & sport item.png,stimuli/Electronic device & accessory.png,,Kitchen & utensil,2,1,stimuli/objects/minifridge.jpg,,,,,,,,2,1,0.8655,0,115,115,115,1,1
,,,,,,,,,,,,,,30,570780,2022-01-10_14h42.24.985,MemLear_ses-01_part-01_label-phase1,2020.1.3,Win32,60,,,,,,,,,,,,stimuli/m_orange.jpg,stimuli/Electronic device & accessory.png,stimuli/Hand labour tool & accessory.png,stimuli/Kitchen & utensil.png,stimuli/Outdoor activity & sport item.png,,Kitchen & utensil,3,0,stimuli/objects/fridge.jpg,,,,,,,,1,0,1.7512,0,116,116,116,1,0
,,,,,,,,,,,,,,30,570780,2022-01-10_14h42.24.985,MemLear_ses-01_part-01_label-phase1,2020.1.3,Win32,60,,,,,,,,,,,,stimuli/m_black.jpg,stimuli/Hand labour tool & accessory.png,stimuli/Outdoor activity & sport item.png,stimuli/Kitchen & utensil.png,stimuli/Electronic device & accessory.png,,Electronic device & accessory,4,0,stimuli/objects/camera01a.jpg,,,,,,,,3,0,1.2601,0,117,117,117,1,1
,,,,,,,,,,,,,,30,570780,2022-01-10_14h42.24.985,MemLear_ses-01_part-01_label-phase1,2020.1.3,Win32,60,,,,,,,,,,,,stimuli/m_black.jpg,stimuli/Outdoor activity & sport item.png,stimuli/Electronic device & accessory.png,stimuli/Hand labour tool & accessory.png,stimuli/Kitchen & utensil.png,,Kitchen & utensil,4,1,stimuli/objects/spicerack.jpg,,,,,,,,2,0,1.9415,0,118,118,118,1,1
,,,,,,,,,,,,,,30,570780,2022-01-10_14h42.24.985,MemLear_ses-01_part-01_label-phase1,2020.1.3,Win32,60,,,,,,,,,,,,stimuli/m_black.jpg,stimuli/Kitchen & utensil.png,stimuli/Outdoor activity & sport item.png,stimuli/Hand labour tool & accessory.png,stimuli/Electronic device & accessory.png,,Kitchen & utensil,1,1,stimuli/objects/icebucket.jpg,,,,,,,,1,1,1.5494,0,119,119,119,1,1
