illustration_loop.thisRepN,illustration_loop.thisTrialN,illustration_loop.thisN,illustration_loop.thisIndex,illustration_loop.ran,images,key,participant,Expra Code,date,expName,psychopyVersion,OS,frameRate,key_resp_4.keys,key_resp_4.corr,key_resp_4.rt,n_back_loop.thisRepN,n_back_loop.thisTrialN,n_back_loop.thisN,n_back_loop.thisIndex,n_back_loop.ran,word,CORRanswer,trialtype,hit_NoHit
0,0,0,0,1,slide 1.jpg,'space’,14,,2021-12-19_22h55.51.597,MemLear_ses-01_part-02_label-nBack,2020.1.3,Win32,60,,,,,,,,,,,,
0,1,1,1,1,slide 2.jpg,'l’,14,,2021-12-19_22h55.51.597,MemLear_ses-01_part-02_label-nBack,2020.1.3,Win32,60,,,,,,,,,,,,
0,2,2,2,1,slide 3.jpg,'l’,14,,2021-12-19_22h55.51.597,MemLear_ses-01_part-02_label-nBack,2020.1.3,Win32,60,,,,,,,,,,,,
0,3,3,3,1,slide 4.jpg,'l’,14,,2021-12-19_22h55.51.597,MemLear_ses-01_part-02_label-nBack,2020.1.3,Win32,60,,,,,,,,,,,,
0,4,4,4,1,slide 5.jpg,'d’,14,,2021-12-19_22h55.51.597,MemLear_ses-01_part-02_label-nBack,2020.1.3,Win32,60,,,,,,,,,,,,
0,5,5,5,1,slide 6.jpg,'l’,14,,2021-12-19_22h55.51.597,MemLear_ses-01_part-02_label-nBack,2020.1.3,Win32,60,,,,,,,,,,,,
,,,,,,,14,,2021-12-19_22h55.51.597,MemLear_ses-01_part-02_label-nBack,2020.1.3,Win32,60,"[""l""]",1,[2.055799999999806],0,0,0,0,1,bless,l,0,NoHit
,,,,,,,14,,2021-12-19_22h55.51.597,MemLear_ses-01_part-02_label-nBack,2020.1.3,Win32,60,"[""l""]",1,[1.141400000000374],0,1,1,1,1,nature,l,0,NoHit
,,,,,,,14,,2021-12-19_22h55.51.597,MemLear_ses-01_part-02_label-nBack,2020.1.3,Win32,60,"[""l""]",1,[1.0398999999999035],0,2,2,2,1,carefree,l,0,NoHit
,,,,,,,14,,2021-12-19_22h55.51.597,MemLear_ses-01_part-02_label-nBack,2020.1.3,Win32,60,"[""d""]",1,[0.8944999999999936],0,3,3,3,1,nature,d,1,Hit
,,,,,,,14,,2021-12-19_22h55.51.597,MemLear_ses-01_part-02_label-nBack,2020.1.3,Win32,60,"[""l""]",1,[1.0079999999999956],0,4,4,4,1,easygoing,l,0,NoHit
,,,,,,,14,,2021-12-19_22h55.51.597,MemLear_ses-01_part-02_label-nBack,2020.1.3,Win32,60,"[""l""]",1,[0.9869999999999948],0,5,5,5,1,pillow,l,0,NoHit
,,,,,,,14,,2021-12-19_22h55.51.597,MemLear_ses-01_part-02_label-nBack,2020.1.3,Win32,60,"[""l""]",0,[0.2602999999998161],0,6,6,6,1,easygoing,d,1,Hit
,,,,,,,14,,2021-12-19_22h55.51.597,MemLear_ses-01_part-02_label-nBack,2020.1.3,Win32,60,"[""l""]",1,[1.6673999999999154],0,7,7,7,1,gentle,l,0,NoHit
,,,,,,,14,,2021-12-19_22h55.51.597,MemLear_ses-01_part-02_label-nBack,2020.1.3,Win32,60,"[""l""]",1,[1.3284999999999911],0,8,8,8,1,square,l,0,NoHit
,,,,,,,14,,2021-12-19_22h55.51.597,MemLear_ses-01_part-02_label-nBack,2020.1.3,Win32,60,"[""d""]",1,[1.0438999999999083],0,9,9,9,1,gentle,d,1,Hit
,,,,,,,14,,2021-12-19_22h55.51.597,MemLear_ses-01_part-02_label-nBack,2020.1.3,Win32,60,"[""l""]",1,[1.4069999999999965],0,10,10,10,1,carefree,l,0,NoHit
,,,,,,,14,,2021-12-19_22h55.51.597,MemLear_ses-01_part-02_label-nBack,2020.1.3,Win32,60,"[""l""]",1,[0.9440000000000168],0,11,11,11,1,tool,l,0,NoHit
,,,,,,,14,,2021-12-19_22h55.51.597,MemLear_ses-01_part-02_label-nBack,2020.1.3,Win32,60,"[""l""]",1,[0.8437000000002115],0,12,12,12,1,bored,l,0,NoHit
,,,,,,,14,,2021-12-19_22h55.51.597,MemLear_ses-01_part-02_label-nBack,2020.1.3,Win32,60,"[""d""]",1,[1.0162000000001967],0,13,13,13,1,tool,d,1,Hit
,,,,,,,14,,2021-12-19_22h55.51.597,MemLear_ses-01_part-02_label-nBack,2020.1.3,Win32,60,"[""l""]",1,[1.2306999999997288],0,14,14,14,1,home,l,0,NoHit
,,,,,,,14,,2021-12-19_22h55.51.597,MemLear_ses-01_part-02_label-nBack,2020.1.3,Win32,60,"[""l""]",1,[1.7802000000001783],0,15,15,15,1,immature,l,0,NoHit
,,,,,,,14,,2021-12-19_22h55.51.597,MemLear_ses-01_part-02_label-nBack,2020.1.3,Win32,60,"[""d""]",1,[0.8954999999999984],0,16,16,16,1,home,d,1,Hit
,,,,,,,14,,2021-12-19_22h55.51.597,MemLear_ses-01_part-02_label-nBack,2020.1.3,Win32,60,"[""l""]",1,[0.8948999999999216],0,17,17,17,1,fault,l,0,NoHit
,,,,,,,14,,2021-12-19_22h55.51.597,MemLear_ses-01_part-02_label-nBack,2020.1.3,Win32,60,"[""l""]",1,[0.9433999999998832],0,18,18,18,1,pillow,l,0,NoHit
,,,,,,,14,,2021-12-19_22h55.51.597,MemLear_ses-01_part-02_label-nBack,2020.1.3,Win32,60,"[""l""]",1,[1.095600000000104],0,19,19,19,1,violin,l,0,NoHit
,,,,,,,14,,2021-12-19_22h55.51.597,MemLear_ses-01_part-02_label-nBack,2020.1.3,Win32,60,"[""d""]",1,[0.8392999999998096],0,20,20,20,1,violin,d,1,Hit
,,,,,,,14,,2021-12-19_22h55.51.597,MemLear_ses-01_part-02_label-nBack,2020.1.3,Win32,60,"[""l""]",1,[3.5283999999999196],0,21,21,21,1,tense,l,0,NoHit
,,,,,,,14,,2021-12-19_22h55.51.597,MemLear_ses-01_part-02_label-nBack,2020.1.3,Win32,60,"[""l""]",1,[3.3286000000000797],0,22,22,22,1,confident,l,0,NoHit
,,,,,,,14,,2021-12-19_22h55.51.597,MemLear_ses-01_part-02_label-nBack,2020.1.3,Win32,60,"[""l""]",1,[0.9781000000000972],0,23,23,23,1,bomb,l,0,NoHit
,,,,,,,14,,2021-12-19_22h55.51.597,MemLear_ses-01_part-02_label-nBack,2020.1.3,Win32,60,"[""d""]",1,[0.7852999999998076],0,24,24,24,1,confident,d,1,Hit
,,,,,,,14,,2021-12-19_22h55.51.597,MemLear_ses-01_part-02_label-nBack,2020.1.3,Win32,60,"[""l""]",1,[1.0844999999999914],0,25,25,25,1,butterfly,l,0,NoHit
,,,,,,,14,,2021-12-19_22h55.51.597,MemLear_ses-01_part-02_label-nBack,2020.1.3,Win32,60,"[""l""]",1,[0.986699999999729],0,26,26,26,1,cheer,l,0,NoHit
,,,,,,,14,,2021-12-19_22h55.51.597,MemLear_ses-01_part-02_label-nBack,2020.1.3,Win32,60,"[""l""]",1,[0.8913999999999191],0,27,27,27,1,street,l,0,NoHit
,,,,,,,14,,2021-12-19_22h55.51.597,MemLear_ses-01_part-02_label-nBack,2020.1.3,Win32,60,"[""d""]",1,[1.0887999999998215],0,28,28,28,1,cheer,d,1,Hit
,,,,,,,14,,2021-12-19_22h55.51.597,MemLear_ses-01_part-02_label-nBack,2020.1.3,Win32,60,"[""l""]",1,[0.8077999999998156],0,29,29,29,1,taxi,l,0,NoHit
,,,,,,,14,,2021-12-19_22h55.51.597,MemLear_ses-01_part-02_label-nBack,2020.1.3,Win32,60,"[""l""]",1,[0.7467999999998369],0,30,30,30,1,adventure,l,0,NoHit
,,,,,,,14,,2021-12-19_22h55.51.597,MemLear_ses-01_part-02_label-nBack,2020.1.3,Win32,60,"[""l""]",1,[0.765799999999814],0,31,31,31,1,crutch,l,0,NoHit
,,,,,,,14,,2021-12-19_22h55.51.597,MemLear_ses-01_part-02_label-nBack,2020.1.3,Win32,60,"[""d""]",1,[0.9368999999998948],0,32,32,32,1,adventure,d,1,Hit
,,,,,,,14,,2021-12-19_22h55.51.597,MemLear_ses-01_part-02_label-nBack,2020.1.3,Win32,60,"[""l""]",1,[0.9093999999999198],0,33,33,33,1,vest,l,0,NoHit
,,,,,,,14,,2021-12-19_22h55.51.597,MemLear_ses-01_part-02_label-nBack,2020.1.3,Win32,60,"[""l""]",1,[1.011800000000278],0,34,34,34,1,taxi,l,0,NoHit
,,,,,,,14,,2021-12-19_22h55.51.597,MemLear_ses-01_part-02_label-nBack,2020.1.3,Win32,60,"[""l""]",1,[0.9464999999999861],0,35,35,35,1,brave,l,0,NoHit
,,,,,,,14,,2021-12-19_22h55.51.597,MemLear_ses-01_part-02_label-nBack,2020.1.3,Win32,60,"[""l""]",1,[0.8950000000000102],0,36,36,36,1,square,l,0,NoHit
,,,,,,,14,,2021-12-19_22h55.51.597,MemLear_ses-01_part-02_label-nBack,2020.1.3,Win32,60,"[""d""]",1,[1.2613000000002899],0,37,37,37,1,brave,d,1,Hit
,,,,,,,14,,2021-12-19_22h55.51.597,MemLear_ses-01_part-02_label-nBack,2020.1.3,Win32,60,"[""l""]",1,[1.224199999999712],0,38,38,38,1,unhappy,l,0,NoHit
,,,,,,,14,,2021-12-19_22h55.51.597,MemLear_ses-01_part-02_label-nBack,2020.1.3,Win32,60,"[""l""]",1,[1.316100000000091],0,39,39,39,1,deformed,l,0,NoHit
,,,,,,,14,,2021-12-19_22h55.51.597,MemLear_ses-01_part-02_label-nBack,2020.1.3,Win32,60,"[""l""]",1,[0.9737999999998124],0,40,40,40,1,rifle,l,0,NoHit
,,,,,,,14,,2021-12-19_22h55.51.597,MemLear_ses-01_part-02_label-nBack,2020.1.3,Win32,60,"[""d""]",1,[1.0826000000000988],0,41,41,41,1,deformed,d,1,Hit
,,,,,,,14,,2021-12-19_22h55.51.597,MemLear_ses-01_part-02_label-nBack,2020.1.3,Win32,60,"[""l""]",1,[1.4466000000001031],0,42,42,42,1,tense,l,0,NoHit
,,,,,,,14,,2021-12-19_22h55.51.597,MemLear_ses-01_part-02_label-nBack,2020.1.3,Win32,60,"[""l""]",1,[1.8493000000002837],0,43,43,43,1,inferior,l,0,NoHit
,,,,,,,14,,2021-12-19_22h55.51.597,MemLear_ses-01_part-02_label-nBack,2020.1.3,Win32,60,"[""l""]",1,[0.913800000000748],0,44,44,44,1,exercise,l,0,NoHit
,,,,,,,14,,2021-12-19_22h55.51.597,MemLear_ses-01_part-02_label-nBack,2020.1.3,Win32,60,"[""d""]",1,[0.8342999999998142],0,45,45,45,1,inferior,d,1,Hit
,,,,,,,14,,2021-12-19_22h55.51.597,MemLear_ses-01_part-02_label-nBack,2020.1.3,Win32,60,"[""l""]",1,[1.0364999999999895],0,46,46,46,1,crutch,l,0,NoHit
,,,,,,,14,,2021-12-19_22h55.51.597,MemLear_ses-01_part-02_label-nBack,2020.1.3,Win32,60,"[""l""]",1,[1.2066000000005488],0,47,47,47,1,obesity,l,0,NoHit
,,,,,,,14,,2021-12-19_22h55.51.597,MemLear_ses-01_part-02_label-nBack,2020.1.3,Win32,60,"[""l""]",1,[2.3997999999998285],0,48,48,48,1,bless,l,0,NoHit
,,,,,,,14,,2021-12-19_22h55.51.597,MemLear_ses-01_part-02_label-nBack,2020.1.3,Win32,60,"[""d""]",1,[1.6440000000000055],0,49,49,49,1,obesity,d,1,Hit
,,,,,,,14,,2021-12-19_22h55.51.597,MemLear_ses-01_part-02_label-nBack,2020.1.3,Win32,60,"[""l""]",1,[1.5407000000001858],0,50,50,50,1,pistol,l,0,NoHit
,,,,,,,14,,2021-12-19_22h55.51.597,MemLear_ses-01_part-02_label-nBack,2020.1.3,Win32,60,"[""l""]",1,[1.8281000000005463],0,51,51,51,1,bored,l,0,NoHit
,,,,,,,14,,2021-12-19_22h55.51.597,MemLear_ses-01_part-02_label-nBack,2020.1.3,Win32,60,"[""l""]",1,[1.0897999999998262],0,52,52,52,1,pity,l,0,NoHit
,,,,,,,14,,2021-12-19_22h55.51.597,MemLear_ses-01_part-02_label-nBack,2020.1.3,Win32,60,"[""l""]",1,[1.5523999999994373],0,53,53,53,1,politeness,l,0,NoHit
,,,,,,,14,,2021-12-19_22h55.51.597,MemLear_ses-01_part-02_label-nBack,2020.1.3,Win32,60,"[""d""]",1,[0.7044999999999959],0,54,54,54,1,pity,d,1,Hit
,,,,,,,14,,2021-12-19_22h55.51.597,MemLear_ses-01_part-02_label-nBack,2020.1.3,Win32,60,"[""l""]",1,[2.353799999999808],0,55,55,55,1,beautiful,l,0,NoHit
,,,,,,,14,,2021-12-19_22h55.51.597,MemLear_ses-01_part-02_label-nBack,2020.1.3,Win32,60,"[""l""]",1,[1.0496000000005665],0,56,56,56,1,street,l,0,NoHit
,,,,,,,14,,2021-12-19_22h55.51.597,MemLear_ses-01_part-02_label-nBack,2020.1.3,Win32,60,"[""d""]",1,[0.9269999999999925],0,57,57,57,1,beautiful,d,1,Hit
,,,,,,,14,,2021-12-19_22h55.51.597,MemLear_ses-01_part-02_label-nBack,2020.1.3,Win32,60,"[""l""]",1,[0.9222000000002026],0,58,58,58,1,aroused,l,0,NoHit
,,,,,,,14,,2021-12-19_22h55.51.597,MemLear_ses-01_part-02_label-nBack,2020.1.3,Win32,60,"[""l""]",1,[0.9834000000003584],0,59,59,59,1,demon,l,0,NoHit
,,,,,,,14,,2021-12-19_22h55.51.597,MemLear_ses-01_part-02_label-nBack,2020.1.3,Win32,60,"[""d""]",1,[0.7620000000000005],0,60,60,60,1,aroused,d,1,Hit
,,,,,,,14,,2021-12-19_22h55.51.597,MemLear_ses-01_part-02_label-nBack,2020.1.3,Win32,60,"[""l""]",1,[0.8738999999994519],0,61,61,61,1,cash,l,0,NoHit
,,,,,,,14,,2021-12-19_22h55.51.597,MemLear_ses-01_part-02_label-nBack,2020.1.3,Win32,60,"[""l""]",1,[2.0356999999992524],0,62,62,62,1,immature,l,0,NoHit
,,,,,,,14,,2021-12-19_22h55.51.597,MemLear_ses-01_part-02_label-nBack,2020.1.3,Win32,60,"[""l""]",1,[0.895700000000204],0,63,63,63,1,cheer,l,0,NoHit
,,,,,,,14,,2021-12-19_22h55.51.597,MemLear_ses-01_part-02_label-nBack,2020.1.3,Win32,60,"[""l""]",0,[1.2174000000003673],0,64,64,64,1,cheer,d,1,Hit
,,,,,,,14,,2021-12-19_22h55.51.597,MemLear_ses-01_part-02_label-nBack,2020.1.3,Win32,60,"[""l""]",1,[1.065499999999986],0,65,65,65,1,controlling,l,0,NoHit
,,,,,,,14,,2021-12-19_22h55.51.597,MemLear_ses-01_part-02_label-nBack,2020.1.3,Win32,60,"[""l""]",1,[0.8399000000003696],0,66,66,66,1,messy,l,0,NoHit
,,,,,,,14,,2021-12-19_22h55.51.597,MemLear_ses-01_part-02_label-nBack,2020.1.3,Win32,60,"[""l""]",1,[0.8411000000005515],0,67,67,67,1,cliff,l,0,NoHit
,,,,,,,14,,2021-12-19_22h55.51.597,MemLear_ses-01_part-02_label-nBack,2020.1.3,Win32,60,"[""l""]",1,[0.8834000000003641],0,68,68,68,1,butterfly,l,0,NoHit
,,,,,,,14,,2021-12-19_22h55.51.597,MemLear_ses-01_part-02_label-nBack,2020.1.3,Win32,60,"[""d""]",1,[0.9944000000003825],0,69,69,69,1,cliff,d,1,Hit
,,,,,,,14,,2021-12-19_22h55.51.597,MemLear_ses-01_part-02_label-nBack,2020.1.3,Win32,60,"[""l""]",1,[1.4399999999999977],0,70,70,70,1,erotic,l,0,NoHit
,,,,,,,14,,2021-12-19_22h55.51.597,MemLear_ses-01_part-02_label-nBack,2020.1.3,Win32,60,"[""l""]",1,[0.9344999999999857],0,71,71,71,1,vest,l,0,NoHit
,,,,,,,14,,2021-12-19_22h55.51.597,MemLear_ses-01_part-02_label-nBack,2020.1.3,Win32,60,"[""l""]",1,[0.7849000000003628],0,72,72,72,1,dazzle,l,0,NoHit
,,,,,,,14,,2021-12-19_22h55.51.597,MemLear_ses-01_part-02_label-nBack,2020.1.3,Win32,60,"[""l""]",1,[0.8404000000003862],0,73,73,73,1,disloyal,l,0,NoHit
,,,,,,,14,,2021-12-19_22h55.51.597,MemLear_ses-01_part-02_label-nBack,2020.1.3,Win32,60,"[""d""]",1,[0.8922999999998069],0,74,74,74,1,dazzle,d,1,Hit
,,,,,,,14,,2021-12-19_22h55.51.597,MemLear_ses-01_part-02_label-nBack,2020.1.3,Win32,60,"[""l""]",1,[1.1529999999999916],0,75,75,75,1,defiant,l,0,NoHit
,,,,,,,14,,2021-12-19_22h55.51.597,MemLear_ses-01_part-02_label-nBack,2020.1.3,Win32,60,"[""l""]",1,[1.2455000000000211],0,76,76,76,1,fault,l,0,NoHit
,,,,,,,14,,2021-12-19_22h55.51.597,MemLear_ses-01_part-02_label-nBack,2020.1.3,Win32,60,"[""d""]",1,[0.801699999999272],0,77,77,77,1,defiant,d,1,Hit
,,,,,,,14,,2021-12-19_22h55.51.597,MemLear_ses-01_part-02_label-nBack,2020.1.3,Win32,60,"[""l""]",1,[1.2224999999999966],0,78,78,78,1,shotgun,l,0,NoHit
,,,,,,,14,,2021-12-19_22h55.51.597,MemLear_ses-01_part-02_label-nBack,2020.1.3,Win32,60,"[""l""]",1,[0.8300000000000125],0,79,79,79,1,revolt,l,0,NoHit
,,,,,,,14,,2021-12-19_22h55.51.597,MemLear_ses-01_part-02_label-nBack,2020.1.3,Win32,60,"[""l""]",1,[0.7434999999999832],0,80,80,80,1,unhappy,l,0,NoHit
,,,,,,,14,,2021-12-19_22h55.51.597,MemLear_ses-01_part-02_label-nBack,2020.1.3,Win32,60,"[""d""]",1,[0.6547000000001901],0,81,81,81,1,revolt,d,1,Hit
,,,,,,,14,,2021-12-19_22h55.51.597,MemLear_ses-01_part-02_label-nBack,2020.1.3,Win32,60,"[""l""]",1,[1.3499999999999943],0,82,82,82,1,car,l,0,NoHit
,,,,,,,14,,2021-12-19_22h55.51.597,MemLear_ses-01_part-02_label-nBack,2020.1.3,Win32,60,"[""l""]",1,[0.6998999999994453],0,83,83,83,1,fight,l,0,NoHit
,,,,,,,14,,2021-12-19_22h55.51.597,MemLear_ses-01_part-02_label-nBack,2020.1.3,Win32,60,"[""l""]",1,[0.915900000000363],0,84,84,84,1,obsession,l,0,NoHit
,,,,,,,14,,2021-12-19_22h55.51.597,MemLear_ses-01_part-02_label-nBack,2020.1.3,Win32,60,"[""l""]",0,[0.9280999999996311],0,85,85,85,1,obsession,d,1,Hit
,,,,,,,14,,2021-12-19_22h55.51.597,MemLear_ses-01_part-02_label-nBack,2020.1.3,Win32,60,"[""l""]",1,[0.8915999999996131],0,86,86,86,1,messy,l,0,NoHit
,,,,,,,14,,2021-12-19_22h55.51.597,MemLear_ses-01_part-02_label-nBack,2020.1.3,Win32,60,"[""l""]",1,[0.8240999999996461],0,87,87,87,1,anger,l,0,NoHit
,,,,,,,14,,2021-12-19_22h55.51.597,MemLear_ses-01_part-02_label-nBack,2020.1.3,Win32,60,"[""l""]",1,[0.8678999999994232],0,88,88,88,1,exercise,l,0,NoHit
,,,,,,,14,,2021-12-19_22h55.51.597,MemLear_ses-01_part-02_label-nBack,2020.1.3,Win32,60,"[""d""]",1,[0.9057000000001949],0,89,89,89,1,anger,d,1,Hit
,,,,,,,14,,2021-12-19_22h55.51.597,MemLear_ses-01_part-02_label-nBack,2020.1.3,Win32,60,"[""l""]",1,[0.7704999999999984],0,90,90,90,1,suspicious,l,0,NoHit
,,,,,,,14,,2021-12-19_22h55.51.597,MemLear_ses-01_part-02_label-nBack,2020.1.3,Win32,60,"[""l""]",1,[1.4590000000000032],0,91,91,91,1,politeness,l,0,NoHit
,,,,,,,14,,2021-12-19_22h55.51.597,MemLear_ses-01_part-02_label-nBack,2020.1.3,Win32,60,"[""d""]",1,[0.8386000000005538],0,92,92,92,1,suspicious,d,1,Hit
,,,,,,,14,,2021-12-19_22h55.51.597,MemLear_ses-01_part-02_label-nBack,2020.1.3,Win32,60,"[""l""]",1,[0.5064999999999884],0,93,93,93,1,shark,l,0,NoHit
,,,,,,,14,,2021-12-19_22h55.51.597,MemLear_ses-01_part-02_label-nBack,2020.1.3,Win32,60,"[""l""]",1,[1.1557999999998003],0,94,94,94,1,detest,l,0,NoHit
,,,,,,,14,,2021-12-19_22h55.51.597,MemLear_ses-01_part-02_label-nBack,2020.1.3,Win32,60,"[""d""]",1,[0.8153999999994426],0,95,95,95,1,shark,d,1,Hit
,,,,,,,14,,2021-12-19_22h55.51.597,MemLear_ses-01_part-02_label-nBack,2020.1.3,Win32,60,"[""l""]",1,[0.5735000000000241],0,96,96,96,1,cash,l,0,NoHit
,,,,,,,14,,2021-12-19_22h55.51.597,MemLear_ses-01_part-02_label-nBack,2020.1.3,Win32,60,"[""l""]",1,[1.1765999999996382],0,97,97,97,1,cancer,l,0,NoHit
,,,,,,,14,,2021-12-19_22h55.51.597,MemLear_ses-01_part-02_label-nBack,2020.1.3,Win32,60,"[""l""]",1,[1.0517000000001815],0,98,98,98,1,pistol,l,0,NoHit
,,,,,,,14,,2021-12-19_22h55.51.597,MemLear_ses-01_part-02_label-nBack,2020.1.3,Win32,60,"[""d""]",1,[0.624100000000567],0,99,99,99,1,cancer,d,1,Hit
