instructions_loop.thisRepN,instructions_loop.thisTrialN,instructions_loop.thisN,instructions_loop.thisIndex,instructions_loop.ran,text1,text2,text3,participant,Expra Code,date,expName,psychopyVersion,OS,frameRate,recog_resp.keys,recog_resp.rt,conf_resp.keys,conf_resp.rt,recog_loop.thisRepN,recog_loop.thisTrialN,recog_loop.thisN,recog_loop.thisIndex,recog_loop.ran,images,modal_categ,type,corr_ans,order,key_resp_break.keys,key_resp_break.rt,list_loop.thisRepN,list_loop.thisTrialN,list_loop.thisN,list_loop.thisIndex,list_loop.ran,recog_list
0,0,0,0,1,Welcome to the last phase of this experiment!,.,Please press the space bar to continue,1,493907,2021-12-22_21h50.38.114,MemLear_ses-01_part-02_label-phase2,2020.1.3,Win32,60,,,,,,,,,,,,,,,,,,,,,,
0,1,1,1,1,.,"In this phase, you will see some objects. 

For each object, you should indicate whether you have seen it before during the experiment.

Press LEFT ARROW for YES
Press RIGHT ARROW for NO

",Please press the space bar to continue ,1,493907,2021-12-22_21h50.38.114,MemLear_ses-01_part-02_label-phase2,2020.1.3,Win32,60,,,,,,,,,,,,,,,,,,,,,,
,,,,,,,,1,493907,2021-12-22_21h50.38.114,MemLear_ses-01_part-02_label-phase2,2020.1.3,Win32,60,left,4.8939,3,3.0634,0,0,0,89,1,stimuli/objects/gardenshears01a.jpg,Hand labour tool & accessory,old,left,90,,,,,,,,
,,,,,,,,1,493907,2021-12-22_21h50.38.114,MemLear_ses-01_part-02_label-phase2,2020.1.3,Win32,60,right,2.3086,3,3.1628,0,1,1,28,1,stimuli/objects/file.jpg,Hand labour tool & accessory,old,left,29,,,,,,,,
,,,,,,,,1,493907,2021-12-22_21h50.38.114,MemLear_ses-01_part-02_label-phase2,2020.1.3,Win32,60,left,2.5979,2,1.9064,0,2,2,10,1,stimuli/objects/paintroller01.jpg,Hand labour tool & accessory,new,right,11,,,,,,,,
,,,,,,,,1,493907,2021-12-22_21h50.38.114,MemLear_ses-01_part-02_label-phase2,2020.1.3,Win32,60,right,1.915,3,1.6104,0,3,3,23,1,stimuli/objects/reflector.jpg,Outdoor activity & sport item,old,left,24,,,,,,,,
,,,,,,,,1,493907,2021-12-22_21h50.38.114,MemLear_ses-01_part-02_label-phase2,2020.1.3,Win32,60,left,2.1123,4,6.8995,0,4,4,59,1,stimuli/objects/needlenosepliers01.jpg,Hand labour tool & accessory,new,right,60,,,,,,,,
,,,,,,,,1,493907,2021-12-22_21h50.38.114,MemLear_ses-01_part-02_label-phase2,2020.1.3,Win32,60,right,2.5052,3,1.5999,0,5,5,74,1,stimuli/objects/shinpad.jpg,Outdoor activity & sport item,new,right,75,,,,,,,,
,,,,,,,,1,493907,2021-12-22_21h50.38.114,MemLear_ses-01_part-02_label-phase2,2020.1.3,Win32,60,left,5.2948,2,0.4709,0,6,6,55,1,stimuli/objects/bikepump01.jpg,Outdoor activity & sport item,old,left,56,,,,,,,,
,,,,,,,,1,493907,2021-12-22_21h50.38.114,MemLear_ses-01_part-02_label-phase2,2020.1.3,Win32,60,right,2.8657,2,0.493,0,7,7,80,1,stimuli/objects/toyhockeystick01.jpg,Outdoor activity & sport item,old,left,81,,,,,,,,
,,,,,,,,1,493907,2021-12-22_21h50.38.114,MemLear_ses-01_part-02_label-phase2,2020.1.3,Win32,60,left,3.3571,4,0.5634,0,8,8,82,1,stimuli/objects/baseball01a.jpg,Outdoor activity & sport item,old,left,83,,,,,,,,
,,,,,,,,1,493907,2021-12-22_21h50.38.114,MemLear_ses-01_part-02_label-phase2,2020.1.3,Win32,60,left,2.9318,4,0.6874,0,9,9,87,1,stimuli/objects/floodlight.jpg,Hand labour tool & accessory,new,right,88,,,,,,,,
,,,,,,,,1,493907,2021-12-22_21h50.38.114,MemLear_ses-01_part-02_label-phase2,2020.1.3,Win32,60,right,2.3015,2,0.6036,0,10,10,1,1,stimuli/objects/gps.jpg,Electronic device & accessory,new,right,2,,,,,,,,
,,,,,,,,1,493907,2021-12-22_21h50.38.114,MemLear_ses-01_part-02_label-phase2,2020.1.3,Win32,60,right,2.6038,2,0.6581,0,11,11,31,1,stimuli/objects/monitor.jpg,Electronic device & accessory,old,left,32,,,,,,,,
,,,,,,,,1,493907,2021-12-22_21h50.38.114,MemLear_ses-01_part-02_label-phase2,2020.1.3,Win32,60,left,1.9907,3,1.5541,0,12,12,11,1,stimuli/objects/drill01b.jpg,Hand labour tool & accessory,new,right,12,,,,,,,,
,,,,,,,,1,493907,2021-12-22_21h50.38.114,MemLear_ses-01_part-02_label-phase2,2020.1.3,Win32,60,left,2.0989,2,1.1357,0,13,13,22,1,stimuli/objects/painttray.jpg,Hand labour tool & accessory,old,left,23,,,,,,,,
,,,,,,,,1,493907,2021-12-22_21h50.38.114,MemLear_ses-01_part-02_label-phase2,2020.1.3,Win32,60,left,3.985,2,0.4164,0,14,14,19,1,stimuli/objects/propanetank01.jpg,Outdoor activity & sport item,old,left,20,,,,,,,,
,,,,,,,,1,493907,2021-12-22_21h50.38.114,MemLear_ses-01_part-02_label-phase2,2020.1.3,Win32,60,left,4.1017,2,1.5397,0,15,15,56,1,stimuli/objects/jackhammer.jpg,Hand labour tool & accessory,old,left,57,,,,,,,,
,,,,,,,,1,493907,2021-12-22_21h50.38.114,MemLear_ses-01_part-02_label-phase2,2020.1.3,Win32,60,right,1.2322,3,1.2615,0,16,16,68,1,stimuli/objects/snowbrush.jpg,Hand labour tool & accessory,new,right,69,,,,,,,,
,,,,,,,,1,493907,2021-12-22_21h50.38.114,MemLear_ses-01_part-02_label-phase2,2020.1.3,Win32,60,right,3.7645,3,4.82,0,17,17,58,1,stimuli/objects/anchor.jpg,Outdoor activity & sport item,old,left,59,,,,,,,,
,,,,,,,,1,493907,2021-12-22_21h50.38.114,MemLear_ses-01_part-02_label-phase2,2020.1.3,Win32,60,left,2.6109,2,0.3447,0,18,18,47,1,stimuli/objects/hedgeshears.jpg,Hand labour tool & accessory,old,left,48,,,,,,,,
,,,,,,,,1,493907,2021-12-22_21h50.38.114,MemLear_ses-01_part-02_label-phase2,2020.1.3,Win32,60,left,3.1918,2,0.4039,0,19,19,83,1,stimuli/objects/cheeseknife01.jpg,Hand labour tool & accessory,old,left,84,,,,,,,,
,,,,,,,,1,493907,2021-12-22_21h50.38.114,MemLear_ses-01_part-02_label-phase2,2020.1.3,Win32,60,right,1.7879,1,1.6497,0,20,20,46,1,stimuli/objects/football.jpg,Outdoor activity & sport item,new,right,47,,,,,,,,
,,,,,,,,1,493907,2021-12-22_21h50.38.114,MemLear_ses-01_part-02_label-phase2,2020.1.3,Win32,60,right,1.5805,3,0.513,0,21,21,54,1,stimuli/objects/rope03.jpg,Hand labour tool & accessory,new,right,55,,,,,,,,
,,,,,,,,1,493907,2021-12-22_21h50.38.114,MemLear_ses-01_part-02_label-phase2,2020.1.3,Win32,60,right,3.6106,2,0.3105,0,22,22,4,1,stimuli/objects/cellphone.jpg,Electronic device & accessory,old,left,5,,,,,,,,
,,,,,,,,1,493907,2021-12-22_21h50.38.114,MemLear_ses-01_part-02_label-phase2,2020.1.3,Win32,60,left,1.7671,3,0.6368,0,23,23,70,1,stimuli/objects/loppingshears.jpg,Hand labour tool & accessory,old,left,71,,,,,,,,
,,,,,,,,1,493907,2021-12-22_21h50.38.114,MemLear_ses-01_part-02_label-phase2,2020.1.3,Win32,60,left,2.3035,4,0.8564,0,24,24,45,1,stimuli/objects/gavel.jpg,Hand labour tool & accessory,old,left,46,,,,,,,,
,,,,,,,,1,493907,2021-12-22_21h50.38.114,MemLear_ses-01_part-02_label-phase2,2020.1.3,Win32,60,right,4.5473,3,2.458,0,25,25,71,1,stimuli/objects/bikewheel.jpg,Outdoor activity & sport item,old,left,72,,,,,,,,
,,,,,,,,1,493907,2021-12-22_21h50.38.114,MemLear_ses-01_part-02_label-phase2,2020.1.3,Win32,60,left,1.7456,2,1.4675,0,26,26,76,1,stimuli/objects/blender.jpg,Kitchen & utensil,old,left,77,,,,,,,,
,,,,,,,,1,493907,2021-12-22_21h50.38.114,MemLear_ses-01_part-02_label-phase2,2020.1.3,Win32,60,right,2.2937,3,0.5381,0,27,27,2,1,stimuli/objects/toyhardhat.jpg,Hand labour tool & accessory,new,right,3,,,,,,,,
,,,,,,,,1,493907,2021-12-22_21h50.38.114,MemLear_ses-01_part-02_label-phase2,2020.1.3,Win32,60,right,2.1319,2,0.6315,0,28,28,79,1,stimuli/objects/fonduefork01.jpg,Kitchen & utensil,old,left,80,,,,,,,,
,,,,,,,,1,493907,2021-12-22_21h50.38.114,MemLear_ses-01_part-02_label-phase2,2020.1.3,Win32,60,left,1.9094,3,0.3546,0,29,29,35,1,stimuli/objects/hedgetrimmer.jpg,Hand labour tool & accessory,new,right,36,,,,,,,,
,,,,,,,,1,493907,2021-12-22_21h50.38.114,MemLear_ses-01_part-02_label-phase2,2020.1.3,Win32,60,right,1.6677,2,1.0881,0,30,30,15,1,stimuli/objects/volleyball.jpg,Outdoor activity & sport item,old,left,16,,,,,,,,
,,,,,,,,1,493907,2021-12-22_21h50.38.114,MemLear_ses-01_part-02_label-phase2,2020.1.3,Win32,60,left,2.1285,3,0.3553,0,31,31,27,1,stimuli/objects/mallet01b.jpg,Hand labour tool & accessory,old,left,28,,,,,,,,
,,,,,,,,1,493907,2021-12-22_21h50.38.114,MemLear_ses-01_part-02_label-phase2,2020.1.3,Win32,60,left,1.6655,4,0.3231,0,32,32,21,1,stimuli/objects/alarmsystem.jpg,Electronic device & accessory,old,left,22,,,,,,,,
,,,,,,,,1,493907,2021-12-22_21h50.38.114,MemLear_ses-01_part-02_label-phase2,2020.1.3,Win32,60,left,2.0823,4,0.2693,0,33,33,7,1,stimuli/objects/wirestripper.jpg,Hand labour tool & accessory,old,left,8,,,,,,,,
,,,,,,,,1,493907,2021-12-22_21h50.38.114,MemLear_ses-01_part-02_label-phase2,2020.1.3,Win32,60,left,1.6098,4,0.4867,0,34,34,52,1,stimuli/objects/grater01a.jpg,Kitchen & utensil,old,left,53,,,,,,,,
,,,,,,,,1,493907,2021-12-22_21h50.38.114,MemLear_ses-01_part-02_label-phase2,2020.1.3,Win32,60,left,2.9411,4,0.3248,0,35,35,67,1,stimuli/objects/avcable.jpg,Electronic device & accessory,old,left,68,,,,,,,,
,,,,,,,,1,493907,2021-12-22_21h50.38.114,MemLear_ses-01_part-02_label-phase2,2020.1.3,Win32,60,left,1.3571,4,1.0219,0,36,36,50,1,stimuli/objects/cclamp.jpg,Hand labour tool & accessory,old,left,51,,,,,,,,
,,,,,,,,1,493907,2021-12-22_21h50.38.114,MemLear_ses-01_part-02_label-phase2,2020.1.3,Win32,60,right,2.8799,3,0.3495,0,37,37,65,1,stimuli/objects/punchingball.jpg,Outdoor activity & sport item,old,left,66,,,,,,,,
,,,,,,,,1,493907,2021-12-22_21h50.38.114,MemLear_ses-01_part-02_label-phase2,2020.1.3,Win32,60,right,1.4941,3,0.0397,0,38,38,66,1,stimuli/objects/exercisebench.jpg,Outdoor activity & sport item,old,left,67,,,,,,,,
,,,,,,,,1,493907,2021-12-22_21h50.38.114,MemLear_ses-01_part-02_label-phase2,2020.1.3,Win32,60,left,3.3112,4,0.2222,0,39,39,61,1,stimuli/objects/swissarmyknife01a.jpg,Hand labour tool & accessory,new,right,62,,,,,,,,
,,,,,,,,1,493907,2021-12-22_21h50.38.114,MemLear_ses-01_part-02_label-phase2,2020.1.3,Win32,60,left,1.8954,4,0.0242,0,40,40,48,1,stimuli/objects/pliers02b.jpg,Hand labour tool & accessory,old,left,49,,,,,,,,
,,,,,,,,1,493907,2021-12-22_21h50.38.114,MemLear_ses-01_part-02_label-phase2,2020.1.3,Win32,60,right,1.224,4,0.0006,0,41,41,33,1,stimuli/objects/exercisemachine.jpg,Outdoor activity & sport item,old,left,34,,,,,,,,
,,,,,,,,1,493907,2021-12-22_21h50.38.114,MemLear_ses-01_part-02_label-phase2,2020.1.3,Win32,60,right,1.3489,4,0.0006,0,42,42,30,1,stimuli/objects/bicycle.jpg,Outdoor activity & sport item,old,left,31,,,,,,,,
,,,,,,,,1,493907,2021-12-22_21h50.38.114,MemLear_ses-01_part-02_label-phase2,2020.1.3,Win32,60,left,4.1827,3,2.1797,0,43,43,20,1,stimuli/objects/boogieboard.jpg,Outdoor activity & sport item,old,left,21,,,,,,,,
,,,,,,,,1,493907,2021-12-22_21h50.38.114,MemLear_ses-01_part-02_label-phase2,2020.1.3,Win32,60,left,3.4387,3,0.2819,0,44,44,13,1,stimuli/objects/solderingwire.jpg,Hand labour tool & accessory,old,left,14,,,,,,,,
,,,,,,,,1,493907,2021-12-22_21h50.38.114,MemLear_ses-01_part-02_label-phase2,2020.1.3,Win32,60,left,4.2943,2,0.3742,0,45,45,73,1,stimuli/objects/spatula03.jpg,Kitchen & utensil,new,right,74,,,,,,,,
,,,,,,,,1,493907,2021-12-22_21h50.38.114,MemLear_ses-01_part-02_label-phase2,2020.1.3,Win32,60,right,1.6548,3,0.7459,0,46,46,81,1,stimuli/objects/charcoalbarbecue.jpg,Outdoor activity & sport item,old,left,82,,,,,,,,
,,,,,,,,1,493907,2021-12-22_21h50.38.114,MemLear_ses-01_part-02_label-phase2,2020.1.3,Win32,60,left,2.6763,2,0.3994,0,47,47,3,1,stimuli/objects/golfbag.jpg,Outdoor activity & sport item,old,left,4,,,,,,,,
,,,,,,,,1,493907,2021-12-22_21h50.38.114,MemLear_ses-01_part-02_label-phase2,2020.1.3,Win32,60,right,4.041,2,2.4435,0,48,48,12,1,stimuli/objects/toolbox02.jpg,Hand labour tool & accessory,new,right,13,,,,,,,,
,,,,,,,,1,493907,2021-12-22_21h50.38.114,MemLear_ses-01_part-02_label-phase2,2020.1.3,Win32,60,right,1.4791,4,0.3329,0,49,49,78,1,stimuli/objects/tent.jpg,Outdoor activity & sport item,new,right,79,,,,,,,,
,,,,,,,,1,493907,2021-12-22_21h50.38.114,MemLear_ses-01_part-02_label-phase2,2020.1.3,Win32,60,left,1.9248,2,0.4094,0,50,50,25,1,stimuli/objects/bungeecord02.jpg,Hand labour tool & accessory,old,left,26,,,,,,,,
,,,,,,,,1,493907,2021-12-22_21h50.38.114,MemLear_ses-01_part-02_label-phase2,2020.1.3,Win32,60,right,1.33,3,0.2316,0,51,51,85,1,stimuli/objects/waterbottleholder.jpg,Outdoor activity & sport item,new,right,86,,,,,,,,
,,,,,,,,1,493907,2021-12-22_21h50.38.114,MemLear_ses-01_part-02_label-phase2,2020.1.3,Win32,60,right,1.2387,2,2.8218,0,52,52,36,1,stimuli/objects/battery02b.jpg,Electronic device & accessory,new,right,37,,,,,,,,
,,,,,,,,1,493907,2021-12-22_21h50.38.114,MemLear_ses-01_part-02_label-phase2,2020.1.3,Win32,60,left,1.741,4,0.0887,0,53,53,42,1,stimuli/objects/videocamera01a.jpg,Electronic device & accessory,old,left,43,,,,,,,,
,,,,,,,,1,493907,2021-12-22_21h50.38.114,MemLear_ses-01_part-02_label-phase2,2020.1.3,Win32,60,right,3.3943,2,0.2552,0,54,54,26,1,stimuli/objects/hockeygoalieglove.jpg,Outdoor activity & sport item,old,left,27,,,,,,,,
,,,,,,,,1,493907,2021-12-22_21h50.38.114,MemLear_ses-01_part-02_label-phase2,2020.1.3,Win32,60,right,4.263,2,0.2867,0,55,55,86,1,stimuli/objects/sledgehammer.jpg,Hand labour tool & accessory,old,left,87,,,,,,,,
,,,,,,,,1,493907,2021-12-22_21h50.38.114,MemLear_ses-01_part-02_label-phase2,2020.1.3,Win32,60,right,1.2283,1,1.9239,0,56,56,41,1,stimuli/objects/leafblower01.jpg,Hand labour tool & accessory,old,left,42,,,,,,,,
,,,,,,,,1,493907,2021-12-22_21h50.38.114,MemLear_ses-01_part-02_label-phase2,2020.1.3,Win32,60,left,3.945,1,1.7209,0,57,57,57,1,stimuli/objects/canoepaddle02.jpg,Outdoor activity & sport item,new,right,58,,,,,,,,
,,,,,,,,1,493907,2021-12-22_21h50.38.114,MemLear_ses-01_part-02_label-phase2,2020.1.3,Win32,60,right,3.5778,2,0.5486,0,58,58,39,1,stimuli/objects/weight01.jpg,Outdoor activity & sport item,old,left,40,,,,,,,,
,,,,,,,,1,493907,2021-12-22_21h50.38.114,MemLear_ses-01_part-02_label-phase2,2020.1.3,Win32,60,left,1.4778,4,0.2079,0,59,59,77,1,stimuli/objects/skigoggles01.jpg,Outdoor activity & sport item,old,left,78,,,,,,,,
,,,,,,,,1,493907,2021-12-22_21h50.38.114,MemLear_ses-01_part-02_label-phase2,2020.1.3,Win32,60,right,5.8163,3,0.6046,0,60,60,60,1,stimuli/objects/remotecontrol04.jpg,Electronic device & accessory,new,right,61,,,,,,,,
,,,,,,,,1,493907,2021-12-22_21h50.38.114,MemLear_ses-01_part-02_label-phase2,2020.1.3,Win32,60,right,3.3756,3,0.1722,0,61,61,44,1,stimuli/objects/skipole.jpg,Outdoor activity & sport item,old,left,45,,,,,,,,
,,,,,,,,1,493907,2021-12-22_21h50.38.114,MemLear_ses-01_part-02_label-phase2,2020.1.3,Win32,60,right,4.5057,4,0.3619,0,62,62,16,1,stimuli/objects/baseballglove.jpg,Outdoor activity & sport item,new,right,17,,,,,,,,
,,,,,,,,1,493907,2021-12-22_21h50.38.114,MemLear_ses-01_part-02_label-phase2,2020.1.3,Win32,60,left,2.4483,3,0.039,0,63,63,38,1,stimuli/objects/mug01.jpg,Kitchen & utensil,new,right,39,,,,,,,,
,,,,,,,,1,493907,2021-12-22_21h50.38.114,MemLear_ses-01_part-02_label-phase2,2020.1.3,Win32,60,right,2.8571,3,0.0005,0,64,64,17,1,stimuli/objects/poolnet.jpg,Outdoor activity & sport item,new,right,18,,,,,,,,
,,,,,,,,1,493907,2021-12-22_21h50.38.114,MemLear_ses-01_part-02_label-phase2,2020.1.3,Win32,60,right,2.0717,3,0.0403,0,65,65,53,1,stimuli/objects/patioumbrella.jpg,Outdoor activity & sport item,new,right,54,,,,,,,,
,,,,,,,,1,493907,2021-12-22_21h50.38.114,MemLear_ses-01_part-02_label-phase2,2020.1.3,Win32,60,left,2.1439,2,0.4935,0,66,66,24,1,stimuli/objects/lawnmower.jpg,Hand labour tool & accessory,new,right,25,,,,,,,,
,,,,,,,,1,493907,2021-12-22_21h50.38.114,MemLear_ses-01_part-02_label-phase2,2020.1.3,Win32,60,right,2.8636,4,0.1086,0,67,67,32,1,stimuli/objects/diaperbag.jpg,Outdoor activity & sport item,new,right,33,,,,,,,,
,,,,,,,,1,493907,2021-12-22_21h50.38.114,MemLear_ses-01_part-02_label-phase2,2020.1.3,Win32,60,right,1.3217,4,1.503,0,68,68,5,1,stimuli/objects/jumpercables.jpg,Hand labour tool & accessory,old,left,6,,,,,,,,
,,,,,,,,1,493907,2021-12-22_21h50.38.114,MemLear_ses-01_part-02_label-phase2,2020.1.3,Win32,60,right,3.2104,3,0.1443,0,69,69,64,1,stimuli/objects/snowboard.jpg,Outdoor activity & sport item,old,left,65,,,,,,,,
,,,,,,,,1,493907,2021-12-22_21h50.38.114,MemLear_ses-01_part-02_label-phase2,2020.1.3,Win32,60,left,1.7904,2,1.3746,0,70,70,49,1,stimuli/objects/nailgun.jpg,Hand labour tool & accessory,old,left,50,,,,,,,,
,,,,,,,,1,493907,2021-12-22_21h50.38.114,MemLear_ses-01_part-02_label-phase2,2020.1.3,Win32,60,left,2.2062,4,0.2823,0,71,71,62,1,stimuli/objects/tennisball01b.jpg,Outdoor activity & sport item,old,left,63,,,,,,,,
,,,,,,,,1,493907,2021-12-22_21h50.38.114,MemLear_ses-01_part-02_label-phase2,2020.1.3,Win32,60,right,1.9303,2,0.4382,0,72,72,14,1,stimuli/objects/binoculars01b.jpg,Outdoor activity & sport item,old,left,15,,,,,,,,
,,,,,,,,1,493907,2021-12-22_21h50.38.114,MemLear_ses-01_part-02_label-phase2,2020.1.3,Win32,60,right,1.9804,3,0.2397,0,73,73,88,1,stimuli/objects/skihelmet01.jpg,Outdoor activity & sport item,new,right,89,,,,,,,,
,,,,,,,,1,493907,2021-12-22_21h50.38.114,MemLear_ses-01_part-02_label-phase2,2020.1.3,Win32,60,left,4.7785,3,1.3119,0,74,74,9,1,stimuli/objects/ethernetcable02.jpg,Electronic device & accessory,new,right,10,,,,,,,,
,,,,,,,,1,493907,2021-12-22_21h50.38.114,MemLear_ses-01_part-02_label-phase2,2020.1.3,Win32,60,left,5.3132,1,0.5553,0,75,75,29,1,stimuli/objects/ellipticalmachine.jpg,Outdoor activity & sport item,new,right,30,,,,,,,,
,,,,,,,,1,493907,2021-12-22_21h50.38.114,MemLear_ses-01_part-02_label-phase2,2020.1.3,Win32,60,left,4.9442,4,0.3131,0,76,76,75,1,stimuli/objects/teapot.jpg,Kitchen & utensil,old,left,76,,,,,,,,
,,,,,,,,1,493907,2021-12-22_21h50.38.114,MemLear_ses-01_part-02_label-phase2,2020.1.3,Win32,60,left,5.0882,3,0.5564,0,77,77,43,1,stimuli/objects/flashlight02b.jpg,Hand labour tool & accessory,old,left,44,,,,,,,,
,,,,,,,,1,493907,2021-12-22_21h50.38.114,MemLear_ses-01_part-02_label-phase2,2020.1.3,Win32,60,right,1.7628,4,0.8479,0,78,78,51,1,stimuli/objects/securitycamera.jpg,Electronic device & accessory,old,left,52,,,,,,,,
,,,,,,,,1,493907,2021-12-22_21h50.38.114,MemLear_ses-01_part-02_label-phase2,2020.1.3,Win32,60,right,4.6245,4,0.4044,0,79,79,84,1,stimuli/objects/lifejacket.jpg,Outdoor activity & sport item,new,right,85,,,,,,,,
,,,,,,,,1,493907,2021-12-22_21h50.38.114,MemLear_ses-01_part-02_label-phase2,2020.1.3,Win32,60,right,2.7219,3,0.3092,0,80,80,69,1,stimuli/objects/icebucket.jpg,Kitchen & utensil,old,left,70,,,,,,,,
,,,,,,,,1,493907,2021-12-22_21h50.38.114,MemLear_ses-01_part-02_label-phase2,2020.1.3,Win32,60,right,3.7146,1,4.3335,0,81,81,6,1,stimuli/objects/kite.jpg,Outdoor activity & sport item,new,right,7,,,,,,,,
,,,,,,,,1,493907,2021-12-22_21h50.38.114,MemLear_ses-01_part-02_label-phase2,2020.1.3,Win32,60,right,2.9955,4,0.3099,0,82,82,34,1,stimuli/objects/squeegee01b.jpg,Hand labour tool & accessory,old,left,35,,,,,,,,
,,,,,,,,1,493907,2021-12-22_21h50.38.114,MemLear_ses-01_part-02_label-phase2,2020.1.3,Win32,60,right,4.3151,4,3.7731,0,83,83,40,1,stimuli/objects/staplegun.jpg,Hand labour tool & accessory,old,left,41,,,,,,,,
,,,,,,,,1,493907,2021-12-22_21h50.38.114,MemLear_ses-01_part-02_label-phase2,2020.1.3,Win32,60,right,1.6553,2,0.2915,0,84,84,0,1,stimuli/objects/bowrake.jpg,Hand labour tool & accessory,old,left,1,,,,,,,,
,,,,,,,,1,493907,2021-12-22_21h50.38.114,MemLear_ses-01_part-02_label-phase2,2020.1.3,Win32,60,right,1.4051,4,0.3194,0,85,85,72,1,stimuli/objects/rollerblade.jpg,Outdoor activity & sport item,new,right,73,,,,,,,,
,,,,,,,,1,493907,2021-12-22_21h50.38.114,MemLear_ses-01_part-02_label-phase2,2020.1.3,Win32,60,left,5.6663,1,2.0583,0,86,86,63,1,stimuli/objects/caulking.jpg,Hand labour tool & accessory,old,left,64,,,,,,,,
,,,,,,,,1,493907,2021-12-22_21h50.38.114,MemLear_ses-01_part-02_label-phase2,2020.1.3,Win32,60,right,2.3668,3,0.7449,0,87,87,37,1,stimuli/objects/shopvac.jpg,Hand labour tool & accessory,old,left,38,,,,,,,,
,,,,,,,,1,493907,2021-12-22_21h50.38.114,MemLear_ses-01_part-02_label-phase2,2020.1.3,Win32,60,right,4.8131,2,0.3063,0,88,88,8,1,stimuli/objects/walkman.jpg,Electronic device & accessory,old,left,9,,,,,,,,
,,,,,,,,1,493907,2021-12-22_21h50.38.114,MemLear_ses-01_part-02_label-phase2,2020.1.3,Win32,60,right,7.3057,3,0.2629,0,89,89,18,1,stimuli/objects/filmnegative.jpg,Electronic device & accessory,new,right,19,,,,,,,,
,,,,,,,,1,493907,2021-12-22_21h50.38.114,MemLear_ses-01_part-02_label-phase2,2020.1.3,Win32,60,,,,,,,,,,,,,,,space,22.0076,0,0,0,0,1,condition_files/ImagesforRecog2_1.csv
,,,,,,,,1,493907,2021-12-22_21h50.38.114,MemLear_ses-01_part-02_label-phase2,2020.1.3,Win32,60,right,1.3768,2,2.524,0,0,0,57,1,stimuli/objects/footballhelmet.jpg,Outdoor activity & sport item,old,left,148,,,,,,,,
,,,,,,,,1,493907,2021-12-22_21h50.38.114,MemLear_ses-01_part-02_label-phase2,2020.1.3,Win32,60,right,2.0207,4,0.2666,0,1,1,14,1,stimuli/objects/bowl02a.jpg,Kitchen & utensil,old,left,105,,,,,,,,
,,,,,,,,1,493907,2021-12-22_21h50.38.114,MemLear_ses-01_part-02_label-phase2,2020.1.3,Win32,60,left,4.2436,2,0.4083,0,2,2,61,1,stimuli/objects/jumpingjack.jpg,Hand labour tool & accessory,old,left,152,,,,,,,,
,,,,,,,,1,493907,2021-12-22_21h50.38.114,MemLear_ses-01_part-02_label-phase2,2020.1.3,Win32,60,right,2.7222,3,1.1628,0,3,3,48,1,stimuli/objects/skiboot01a.jpg,Outdoor activity & sport item,new,right,139,,,,,,,,
,,,,,,,,1,493907,2021-12-22_21h50.38.114,MemLear_ses-01_part-02_label-phase2,2020.1.3,Win32,60,right,2.2129,4,0.3108,0,4,4,41,1,stimuli/objects/birdie.jpg,Outdoor activity & sport item,old,left,132,,,,,,,,
,,,,,,,,1,493907,2021-12-22_21h50.38.114,MemLear_ses-01_part-02_label-phase2,2020.1.3,Win32,60,right,2.2056,3,0.4908,0,5,5,43,1,stimuli/objects/lifesaver.jpg,Outdoor activity & sport item,old,left,134,,,,,,,,
,,,,,,,,1,493907,2021-12-22_21h50.38.114,MemLear_ses-01_part-02_label-phase2,2020.1.3,Win32,60,right,3.8741,4,2.5025,0,6,6,6,1,stimuli/objects/drillbit03a.jpg,Hand labour tool & accessory,old,left,97,,,,,,,,
,,,,,,,,1,493907,2021-12-22_21h50.38.114,MemLear_ses-01_part-02_label-phase2,2020.1.3,Win32,60,left,8.6152,1,0.7898,0,7,7,77,1,stimuli/objects/beachumbrella01.jpg,Outdoor activity & sport item,old,left,168,,,,,,,,
,,,,,,,,1,493907,2021-12-22_21h50.38.114,MemLear_ses-01_part-02_label-phase2,2020.1.3,Win32,60,left,2.0724,4,0.2357,0,8,8,21,1,stimuli/objects/tape02a.jpg,Hand labour tool & accessory,old,left,112,,,,,,,,
,,,,,,,,1,493907,2021-12-22_21h50.38.114,MemLear_ses-01_part-02_label-phase2,2020.1.3,Win32,60,left,6.4081,3,0.032,0,9,9,0,1,stimuli/objects/adjustablewrench01b.jpg,Hand labour tool & accessory,old,left,91,,,,,,,,
,,,,,,,,1,493907,2021-12-22_21h50.38.114,MemLear_ses-01_part-02_label-phase2,2020.1.3,Win32,60,right,2.9906,3,0.2428,0,10,10,85,1,stimuli/objects/pylon01.jpg,Hand labour tool & accessory,old,left,176,,,,,,,,
,,,,,,,,1,493907,2021-12-22_21h50.38.114,MemLear_ses-01_part-02_label-phase2,2020.1.3,Win32,60,right,3.9648,3,0.2019,0,11,11,53,1,stimuli/objects/television.jpg,Electronic device & accessory,new,right,144,,,,,,,,
,,,,,,,,1,493907,2021-12-22_21h50.38.114,MemLear_ses-01_part-02_label-phase2,2020.1.3,Win32,60,left,5.5835,4,0.4283,0,12,12,38,1,stimuli/objects/puttyknife.jpg,Hand labour tool & accessory,old,left,129,,,,,,,,
,,,,,,,,1,493907,2021-12-22_21h50.38.114,MemLear_ses-01_part-02_label-phase2,2020.1.3,Win32,60,right,1.2118,3,0.2219,0,13,13,26,1,stimuli/objects/tray.jpg,Kitchen & utensil,old,left,117,,,,,,,,
,,,,,,,,1,493907,2021-12-22_21h50.38.114,MemLear_ses-01_part-02_label-phase2,2020.1.3,Win32,60,right,2.0544,3,0.2712,0,14,14,15,1,stimuli/objects/kneepad01c.jpg,Outdoor activity & sport item,old,left,106,,,,,,,,
,,,,,,,,1,493907,2021-12-22_21h50.38.114,MemLear_ses-01_part-02_label-phase2,2020.1.3,Win32,60,right,4.0249,2,0.2121,0,15,15,28,1,stimuli/objects/pipewrench.jpg,Hand labour tool & accessory,old,left,119,,,,,,,,
,,,,,,,,1,493907,2021-12-22_21h50.38.114,MemLear_ses-01_part-02_label-phase2,2020.1.3,Win32,60,right,4.3877,4,0.082,0,16,16,89,1,stimuli/objects/coffeemachine.jpg,Electronic device & accessory,old,left,180,,,,,,,,
,,,,,,,,1,493907,2021-12-22_21h50.38.114,MemLear_ses-01_part-02_label-phase2,2020.1.3,Win32,60,left,7.4705,1,0.6527,0,17,17,79,1,stimuli/objects/styrofoamcup.jpg,Kitchen & utensil,old,left,170,,,,,,,,
,,,,,,,,1,493907,2021-12-22_21h50.38.114,MemLear_ses-01_part-02_label-phase2,2020.1.3,Win32,60,right,1.3137,4,0.0892,0,18,18,3,1,stimuli/objects/snowshoe.jpg,Outdoor activity & sport item,old,left,94,,,,,,,,
,,,,,,,,1,493907,2021-12-22_21h50.38.114,MemLear_ses-01_part-02_label-phase2,2020.1.3,Win32,60,right,2.3549,2,0.4492,0,19,19,70,1,stimuli/objects/trampoline.jpg,Outdoor activity & sport item,new,right,161,,,,,,,,
,,,,,,,,1,493907,2021-12-22_21h50.38.114,MemLear_ses-01_part-02_label-phase2,2020.1.3,Win32,60,left,3.8565,4,1.5534,0,20,20,62,1,stimuli/objects/tennisracket.jpg,Outdoor activity & sport item,old,left,153,,,,,,,,
,,,,,,,,1,493907,2021-12-22_21h50.38.114,MemLear_ses-01_part-02_label-phase2,2020.1.3,Win32,60,left,2.2048,4,0.4936,0,21,21,45,1,stimuli/objects/bikelock.jpg,Outdoor activity & sport item,old,left,136,,,,,,,,
,,,,,,,,1,493907,2021-12-22_21h50.38.114,MemLear_ses-01_part-02_label-phase2,2020.1.3,Win32,60,right,9.039,1,0.7105,0,22,22,64,1,stimuli/objects/handrake01a.jpg,Hand labour tool & accessory,new,right,155,,,,,,,,
,,,,,,,,1,493907,2021-12-22_21h50.38.114,MemLear_ses-01_part-02_label-phase2,2020.1.3,Win32,60,right,1.7986,3,2.2571,0,23,23,46,1,stimuli/objects/bowlingball.jpg,Outdoor activity & sport item,old,left,137,,,,,,,,
,,,,,,,,1,493907,2021-12-22_21h50.38.114,MemLear_ses-01_part-02_label-phase2,2020.1.3,Win32,60,right,1.2643,4,0.2838,0,24,24,73,1,stimuli/objects/carjack.jpg,Hand labour tool & accessory,old,left,164,,,,,,,,
,,,,,,,,1,493907,2021-12-22_21h50.38.114,MemLear_ses-01_part-02_label-phase2,2020.1.3,Win32,60,left,1.3374,4,0.9097,0,25,25,69,1,stimuli/objects/cuttingpliers02.jpg,Hand labour tool & accessory,old,left,160,,,,,,,,
,,,,,,,,1,493907,2021-12-22_21h50.38.114,MemLear_ses-01_part-02_label-phase2,2020.1.3,Win32,60,right,1.0631,3,0.5769,0,26,26,82,1,stimuli/objects/flooringstapler.jpg,Hand labour tool & accessory,new,right,173,,,,,,,,
,,,,,,,,1,493907,2021-12-22_21h50.38.114,MemLear_ses-01_part-02_label-phase2,2020.1.3,Win32,60,right,2.3339,3,0.2758,0,27,27,42,1,stimuli/objects/metalscissors.jpg,Hand labour tool & accessory,old,left,133,,,,,,,,
,,,,,,,,1,493907,2021-12-22_21h50.38.114,MemLear_ses-01_part-02_label-phase2,2020.1.3,Win32,60,left,3.6252,2,0.6444,0,28,28,12,1,stimuli/objects/potatomasher03b.jpg,Kitchen & utensil,new,right,103,,,,,,,,
,,,,,,,,1,493907,2021-12-22_21h50.38.114,MemLear_ses-01_part-02_label-phase2,2020.1.3,Win32,60,right,3.0997,2,3.3934,0,29,29,7,1,stimuli/objects/bucket02.jpg,Hand labour tool & accessory,old,left,98,,,,,,,,
,,,,,,,,1,493907,2021-12-22_21h50.38.114,MemLear_ses-01_part-02_label-phase2,2020.1.3,Win32,60,right,1.8125,4,0.2195,0,30,30,8,1,stimuli/objects/oven.jpg,Kitchen & utensil,old,left,99,,,,,,,,
,,,,,,,,1,493907,2021-12-22_21h50.38.114,MemLear_ses-01_part-02_label-phase2,2020.1.3,Win32,60,left,2.5962,1,0.2327,0,31,31,16,1,stimuli/objects/downhillski.jpg,Outdoor activity & sport item,new,right,107,,,,,,,,
,,,,,,,,1,493907,2021-12-22_21h50.38.114,MemLear_ses-01_part-02_label-phase2,2020.1.3,Win32,60,right,1.3458,2,1.591,0,32,32,10,1,stimuli/objects/punchingbag.jpg,Outdoor activity & sport item,new,right,101,,,,,,,,
,,,,,,,,1,493907,2021-12-22_21h50.38.114,MemLear_ses-01_part-02_label-phase2,2020.1.3,Win32,60,right,1.7714,4,0.0006,0,33,33,36,1,stimuli/objects/magneticcompass.jpg,Outdoor activity & sport item,old,left,127,,,,,,,,
,,,,,,,,1,493907,2021-12-22_21h50.38.114,MemLear_ses-01_part-02_label-phase2,2020.1.3,Win32,60,left,4.5145,3,0.1604,0,34,34,78,1,stimuli/objects/basketball01.jpg,Outdoor activity & sport item,new,right,169,,,,,,,,
,,,,,,,,1,493907,2021-12-22_21h50.38.114,MemLear_ses-01_part-02_label-phase2,2020.1.3,Win32,60,left,3.063,3,0.9897,0,35,35,87,1,stimuli/objects/pot01.jpg,Kitchen & utensil,old,left,178,,,,,,,,
,,,,,,,,1,493907,2021-12-22_21h50.38.114,MemLear_ses-01_part-02_label-phase2,2020.1.3,Win32,60,right,3.6173,3,0.2396,0,36,36,68,1,stimuli/objects/basketballhoop01.jpg,Outdoor activity & sport item,old,left,159,,,,,,,,
,,,,,,,,1,493907,2021-12-22_21h50.38.114,MemLear_ses-01_part-02_label-phase2,2020.1.3,Win32,60,left,2.1475,4,0.2038,0,37,37,25,1,stimuli/objects/hammer01.jpg,Hand labour tool & accessory,old,left,116,,,,,,,,
,,,,,,,,1,493907,2021-12-22_21h50.38.114,MemLear_ses-01_part-02_label-phase2,2020.1.3,Win32,60,left,2.7919,3,0.2895,0,38,38,83,1,stimuli/objects/tablesaw.jpg,Hand labour tool & accessory,old,left,174,,,,,,,,
,,,,,,,,1,493907,2021-12-22_21h50.38.114,MemLear_ses-01_part-02_label-phase2,2020.1.3,Win32,60,right,1.2283,4,0.7325,0,39,39,39,1,stimuli/objects/spotlight.jpg,Electronic device & accessory,old,left,130,,,,,,,,
,,,,,,,,1,493907,2021-12-22_21h50.38.114,MemLear_ses-01_part-02_label-phase2,2020.1.3,Win32,60,right,2.4418,4,0.0968,0,40,40,44,1,stimuli/objects/metalbrush.jpg,Hand labour tool & accessory,old,left,135,,,,,,,,
,,,,,,,,1,493907,2021-12-22_21h50.38.114,MemLear_ses-01_part-02_label-phase2,2020.1.3,Win32,60,right,1.1125,4,0.1897,0,41,41,20,1,stimuli/objects/frisbee.jpg,Outdoor activity & sport item,old,left,111,,,,,,,,
,,,,,,,,1,493907,2021-12-22_21h50.38.114,MemLear_ses-01_part-02_label-phase2,2020.1.3,Win32,60,left,2.2343,1,0.1565,0,42,42,35,1,stimuli/objects/axe01.jpg,Hand labour tool & accessory,new,right,126,,,,,,,,
,,,,,,,,1,493907,2021-12-22_21h50.38.114,MemLear_ses-01_part-02_label-phase2,2020.1.3,Win32,60,left,2.2259,2,0.19,0,43,43,63,1,stimuli/objects/skateboard.jpg,Outdoor activity & sport item,new,right,154,,,,,,,,
,,,,,,,,1,493907,2021-12-22_21h50.38.114,MemLear_ses-01_part-02_label-phase2,2020.1.3,Win32,60,left,1.3948,2,0.1063,0,44,44,37,1,stimuli/objects/pickaxe02.jpg,Hand labour tool & accessory,old,left,128,,,,,,,,
,,,,,,,,1,493907,2021-12-22_21h50.38.114,MemLear_ses-01_part-02_label-phase2,2020.1.3,Win32,60,right,1.1131,4,0.0265,0,45,45,50,1,stimuli/objects/kiddiepool.jpg,Outdoor activity & sport item,new,right,141,,,,,,,,
,,,,,,,,1,493907,2021-12-22_21h50.38.114,MemLear_ses-01_part-02_label-phase2,2020.1.3,Win32,60,right,2.1187,3,0.2223,0,46,46,30,1,stimuli/objects/ladder.jpg,Hand labour tool & accessory,new,right,121,,,,,,,,
,,,,,,,,1,493907,2021-12-22_21h50.38.114,MemLear_ses-01_part-02_label-phase2,2020.1.3,Win32,60,right,2.9436,3,0.9671,0,47,47,54,1,stimuli/objects/kitchenscale01a.jpg,Kitchen & utensil,old,left,145,,,,,,,,
,,,,,,,,1,493907,2021-12-22_21h50.38.114,MemLear_ses-01_part-02_label-phase2,2020.1.3,Win32,60,right,3.8895,2,1.2262,0,48,48,58,1,stimuli/objects/carlighter02.jpg,Electronic device & accessory,old,left,149,,,,,,,,
,,,,,,,,1,493907,2021-12-22_21h50.38.114,MemLear_ses-01_part-02_label-phase2,2020.1.3,Win32,60,left,3.3919,2,0.2893,0,49,49,22,1,stimuli/objects/toaster01.jpg,Kitchen & utensil,new,right,113,,,,,,,,
,,,,,,,,1,493907,2021-12-22_21h50.38.114,MemLear_ses-01_part-02_label-phase2,2020.1.3,Win32,60,right,2.5292,3,0.3739,0,50,50,18,1,stimuli/objects/wheel01.jpg,Hand labour tool & accessory,old,left,109,,,,,,,,
,,,,,,,,1,493907,2021-12-22_21h50.38.114,MemLear_ses-01_part-02_label-phase2,2020.1.3,Win32,60,right,2.2771,3,1.3744,0,51,51,55,1,stimuli/objects/lock03a.jpg,Hand labour tool & accessory,old,left,146,,,,,,,,
,,,,,,,,1,493907,2021-12-22_21h50.38.114,MemLear_ses-01_part-02_label-phase2,2020.1.3,Win32,60,right,1.6906,3,1.1705,0,52,52,59,1,stimuli/objects/boatmotor.jpg,Outdoor activity & sport item,new,right,150,,,,,,,,
,,,,,,,,1,493907,2021-12-22_21h50.38.114,MemLear_ses-01_part-02_label-phase2,2020.1.3,Win32,60,left,1.9738,4,0.437,0,53,53,31,1,stimuli/objects/swimgoggles.jpg,Outdoor activity & sport item,old,left,122,,,,,,,,
,,,,,,,,1,493907,2021-12-22_21h50.38.114,MemLear_ses-01_part-02_label-phase2,2020.1.3,Win32,60,left,1.7302,2,0.1651,0,54,54,29,1,stimuli/objects/measuringtape01.jpg,Hand labour tool & accessory,old,left,120,,,,,,,,
,,,,,,,,1,493907,2021-12-22_21h50.38.114,MemLear_ses-01_part-02_label-phase2,2020.1.3,Win32,60,right,1.3502,3,0.0155,0,55,55,24,1,stimuli/objects/dolly01.jpg,Hand labour tool & accessory,new,right,115,,,,,,,,
,,,,,,,,1,493907,2021-12-22_21h50.38.114,MemLear_ses-01_part-02_label-phase2,2020.1.3,Win32,60,right,1.1732,2,0.596,0,56,56,81,1,stimuli/objects/jigsaw.jpg,Hand labour tool & accessory,new,right,172,,,,,,,,
,,,,,,,,1,493907,2021-12-22_21h50.38.114,MemLear_ses-01_part-02_label-phase2,2020.1.3,Win32,60,left,1.712,3,0.3879,0,57,57,1,1,stimuli/objects/exercisebike.jpg,Outdoor activity & sport item,old,left,92,,,,,,,,
,,,,,,,,1,493907,2021-12-22_21h50.38.114,MemLear_ses-01_part-02_label-phase2,2020.1.3,Win32,60,right,1.3319,2,0.2785,0,58,58,13,1,stimuli/objects/soccerball.jpg,Outdoor activity & sport item,new,right,104,,,,,,,,
,,,,,,,,1,493907,2021-12-22_21h50.38.114,MemLear_ses-01_part-02_label-phase2,2020.1.3,Win32,60,left,2.4331,2,0.6891,0,59,59,72,1,stimuli/objects/swing.jpg,Outdoor activity & sport item,old,left,163,,,,,,,,
,,,,,,,,1,493907,2021-12-22_21h50.38.114,MemLear_ses-01_part-02_label-phase2,2020.1.3,Win32,60,left,1.6406,3,1.4155,0,60,60,47,1,stimuli/objects/umbrella04.jpg,Outdoor activity & sport item,old,left,138,,,,,,,,
,,,,,,,,1,493907,2021-12-22_21h50.38.114,MemLear_ses-01_part-02_label-phase2,2020.1.3,Win32,60,right,1.3398,2,0.3365,0,61,61,2,1,stimuli/objects/solderingiron.jpg,Hand labour tool & accessory,old,left,93,,,,,,,,
,,,,,,,,1,493907,2021-12-22_21h50.38.114,MemLear_ses-01_part-02_label-phase2,2020.1.3,Win32,60,left,2.2924,1,0.3018,0,62,62,11,1,stimuli/objects/whisk.jpg,Kitchen & utensil,new,right,102,,,,,,,,
,,,,,,,,1,493907,2021-12-22_21h50.38.114,MemLear_ses-01_part-02_label-phase2,2020.1.3,Win32,60,right,2.1069,2,0.3274,0,63,63,27,1,stimuli/objects/shovel01.jpg,Hand labour tool & accessory,new,right,118,,,,,,,,
,,,,,,,,1,493907,2021-12-22_21h50.38.114,MemLear_ses-01_part-02_label-phase2,2020.1.3,Win32,60,left,2.9647,4,0.3671,0,64,64,86,1,stimuli/objects/gluetube.jpg,Hand labour tool & accessory,old,left,177,,,,,,,,
,,,,,,,,1,493907,2021-12-22_21h50.38.114,MemLear_ses-01_part-02_label-phase2,2020.1.3,Win32,60,left,1.2803,4,0.0298,0,65,65,19,1,stimuli/objects/golfball.jpg,Outdoor activity & sport item,old,left,110,,,,,,,,
,,,,,,,,1,493907,2021-12-22_21h50.38.114,MemLear_ses-01_part-02_label-phase2,2020.1.3,Win32,60,left,1.0251,4,0.0006,0,66,66,49,1,stimuli/objects/badmintonracket.jpg,Outdoor activity & sport item,old,left,140,,,,,,,,
,,,,,,,,1,493907,2021-12-22_21h50.38.114,MemLear_ses-01_part-02_label-phase2,2020.1.3,Win32,60,left,2.7138,2,0.7204,0,67,67,33,1,stimuli/objects/boxcutter03a.jpg,Hand labour tool & accessory,new,right,124,,,,,,,,
,,,,,,,,1,493907,2021-12-22_21h50.38.114,MemLear_ses-01_part-02_label-phase2,2020.1.3,Win32,60,right,1.1221,2,1.2389,0,68,68,67,1,stimuli/objects/stepladder.jpg,Hand labour tool & accessory,old,left,158,,,,,,,,
,,,,,,,,1,493907,2021-12-22_21h50.38.114,MemLear_ses-01_part-02_label-phase2,2020.1.3,Win32,60,right,4.5626,1,0.2749,0,69,69,56,1,stimuli/objects/gastank.jpg,Hand labour tool & accessory,old,left,147,,,,,,,,
,,,,,,,,1,493907,2021-12-22_21h50.38.114,MemLear_ses-01_part-02_label-phase2,2020.1.3,Win32,60,right,1.1556,2,0.1725,0,70,70,88,1,stimuli/objects/mitresaw.jpg,Hand labour tool & accessory,old,left,179,,,,,,,,
,,,,,,,,1,493907,2021-12-22_21h50.38.114,MemLear_ses-01_part-02_label-phase2,2020.1.3,Win32,60,left,2.1111,3,0.8768,0,71,71,32,1,stimuli/objects/podium.jpg,Outdoor activity & sport item,old,left,123,,,,,,,,
,,,,,,,,1,493907,2021-12-22_21h50.38.114,MemLear_ses-01_part-02_label-phase2,2020.1.3,Win32,60,right,1.1566,3,1.4801,0,72,72,66,1,stimuli/objects/parachute.jpg,Outdoor activity & sport item,new,right,157,,,,,,,,
,,,,,,,,1,493907,2021-12-22_21h50.38.114,MemLear_ses-01_part-02_label-phase2,2020.1.3,Win32,60,left,3.2875,3,0.3595,0,73,73,34,1,stimuli/objects/sportbag.jpg,Outdoor activity & sport item,old,left,125,,,,,,,,
,,,,,,,,1,493907,2021-12-22_21h50.38.114,MemLear_ses-01_part-02_label-phase2,2020.1.3,Win32,60,right,1.051,4,0.43,0,74,74,9,1,stimuli/objects/gymnasticring.jpg,Outdoor activity & sport item,old,left,100,,,,,,,,
,,,,,,,,1,493907,2021-12-22_21h50.38.114,MemLear_ses-01_part-02_label-phase2,2020.1.3,Win32,60,right,4.2575,3,0.4502,0,75,75,80,1,stimuli/objects/wateringcan.jpg,Hand labour tool & accessory,new,right,171,,,,,,,,
,,,,,,,,1,493907,2021-12-22_21h50.38.114,MemLear_ses-01_part-02_label-phase2,2020.1.3,Win32,60,left,1.514,2,0.2346,0,76,76,5,1,stimuli/objects/cooler01.jpg,Outdoor activity & sport item,old,left,96,,,,,,,,
,,,,,,,,1,493907,2021-12-22_21h50.38.114,MemLear_ses-01_part-02_label-phase2,2020.1.3,Win32,60,left,13.3466,1,0.1264,0,77,77,51,1,stimuli/objects/chandelier.jpg,Electronic device & accessory,old,left,142,,,,,,,,
,,,,,,,,1,493907,2021-12-22_21h50.38.114,MemLear_ses-01_part-02_label-phase2,2020.1.3,Win32,60,left,2.03,2,0.2215,0,78,78,76,1,stimuli/objects/boltcutter.jpg,Hand labour tool & accessory,new,right,167,,,,,,,,
,,,,,,,,1,493907,2021-12-22_21h50.38.114,MemLear_ses-01_part-02_label-phase2,2020.1.3,Win32,60,right,0.9931,3,0.313,0,79,79,75,1,stimuli/objects/scanner.jpg,Electronic device & accessory,old,left,166,,,,,,,,
,,,,,,,,1,493907,2021-12-22_21h50.38.114,MemLear_ses-01_part-02_label-phase2,2020.1.3,Win32,60,right,1.0781,3,0.4089,0,80,80,17,1,stimuli/objects/aircompressor.jpg,Hand labour tool & accessory,new,right,108,,,,,,,,
,,,,,,,,1,493907,2021-12-22_21h50.38.114,MemLear_ses-01_part-02_label-phase2,2020.1.3,Win32,60,right,1.2587,2,0.3198,0,81,81,65,1,stimuli/objects/cleaver01.jpg,Kitchen & utensil,old,left,156,,,,,,,,
,,,,,,,,1,493907,2021-12-22_21h50.38.114,MemLear_ses-01_part-02_label-phase2,2020.1.3,Win32,60,right,1.0712,4,0.1812,0,82,82,52,1,stimuli/objects/surfboard.jpg,Outdoor activity & sport item,old,left,143,,,,,,,,
,,,,,,,,1,493907,2021-12-22_21h50.38.114,MemLear_ses-01_part-02_label-phase2,2020.1.3,Win32,60,right,1.3403,4,0.7571,0,83,83,23,1,stimuli/objects/hoe.jpg,Hand labour tool & accessory,old,left,114,,,,,,,,
,,,,,,,,1,493907,2021-12-22_21h50.38.114,MemLear_ses-01_part-02_label-phase2,2020.1.3,Win32,60,left,4.9239,3,0.2215,0,84,84,71,1,stimuli/objects/paintbrush01.jpg,Hand labour tool & accessory,new,right,162,,,,,,,,
,,,,,,,,1,493907,2021-12-22_21h50.38.114,MemLear_ses-01_part-02_label-phase2,2020.1.3,Win32,60,left,1.6556,3,0.2482,0,85,85,74,1,stimuli/objects/sewingmachine01a.jpg,Hand labour tool & accessory,new,right,165,,,,,,,,
,,,,,,,,1,493907,2021-12-22_21h50.38.114,MemLear_ses-01_part-02_label-phase2,2020.1.3,Win32,60,right,1.3903,2,0.2515,0,86,86,60,1,stimuli/objects/handgripper.jpg,Outdoor activity & sport item,old,left,151,,,,,,,,
,,,,,,,,1,493907,2021-12-22_21h50.38.114,MemLear_ses-01_part-02_label-phase2,2020.1.3,Win32,60,right,6.6756,1,0.2728,0,87,87,4,1,stimuli/objects/bikehelmet.jpg,Outdoor activity & sport item,old,left,95,,,,,,,,
,,,,,,,,1,493907,2021-12-22_21h50.38.114,MemLear_ses-01_part-02_label-phase2,2020.1.3,Win32,60,right,1.4798,3,0.5204,0,88,88,84,1,stimuli/objects/backpack01a.jpg,Outdoor activity & sport item,old,left,175,,,,,,,,
,,,,,,,,1,493907,2021-12-22_21h50.38.114,MemLear_ses-01_part-02_label-phase2,2020.1.3,Win32,60,right,1.0807,3,0.3414,0,89,89,40,1,stimuli/objects/knife03.jpg,Kitchen & utensil,new,right,131,,,,,,,,
,,,,,,,,1,493907,2021-12-22_21h50.38.114,MemLear_ses-01_part-02_label-phase2,2020.1.3,Win32,60,,,,,,,,,,,,,,,space,4.5148,0,1,1,1,1,condition_files/ImagesforRecog2_2.csv
