myownaccuracy,respcorrs,minNrPractice,considerNrTrials,Instr_resp.keys,Instr_resp.rt,key_resp_2.keys,key_resp_2.rt,instruction_loop.thisRepN,instruction_loop.thisTrialN,instruction_loop.thisN,instruction_loop.thisIndex,instruction_loop.ran,slides,participant,Expra Code,date,expName,psychopyVersion,OS,frameRate,taskGoresp.keys,taskGoresp.rt,pract_resp.keys,pract_resp.corr,myownaccuracyCORR,pract_loop.thisRepN,pract_loop.thisTrialN,pract_loop.thisN,pract_loop.thisIndex,pract_loop.ran,character,left_categ,centleft_categ,centright_categ,right_categ,trial_cond,corr_ans,corr_ans_num,type,img,pract_resp.rt,rep_resp.keys,rep_resp.rt,repeat_practice.thisRepN,repeat_practice.thisTrialN,repeat_practice.thisN,repeat_practice.thisIndex,repeat_practice.ran,task_response.keys,task_response.corr,task_response.rt,task_loop.thisRepN,task_loop.thisTrialN,task_loop.thisN,task_loop.thisIndex,task_loop.ran,condition
[],[],10,10,space,19.8222,space,5.0745,0,0,0,0,1,stimuli/slide1.png,24,,2021-12-21_11h31.16.617,MemLear_ses-01_part-01_label-phase1,2020.1.3,Win32,60,,,,,,,,,,,,,,,,,,,,,,,,,,,,,,,,,,,,,
,,,,,,space,13.9729,0,1,1,1,1,stimuli/slide2.png,24,,2021-12-21_11h31.16.617,MemLear_ses-01_part-01_label-phase1,2020.1.3,Win32,60,,,,,,,,,,,,,,,,,,,,,,,,,,,,,,,,,,,,,
,,,,,,space,31.957,0,2,2,2,1,stimuli/slide3.png,24,,2021-12-21_11h31.16.617,MemLear_ses-01_part-01_label-phase1,2020.1.3,Win32,60,,,,,,,,,,,,,,,,,,,,,,,,,,,,,,,,,,,,,
,,,,,,space,23.9726,0,3,3,3,1,stimuli/slide4.png,24,,2021-12-21_11h31.16.617,MemLear_ses-01_part-01_label-phase1,2020.1.3,Win32,60,,,,,,,,,,,,,,,,,,,,,,,,,,,,,,,,,,,,,
,,,,,,space,10.068,0,4,4,4,1,stimuli/slide5.png,24,,2021-12-21_11h31.16.617,MemLear_ses-01_part-01_label-phase1,2020.1.3,Win32,60,,,,,,,,,,,,,,,,,,,,,,,,,,,,,,,,,,,,,
,,,,,,space,6.0675,0,5,5,5,1,stimuli/slide6.png,24,,2021-12-21_11h31.16.617,MemLear_ses-01_part-01_label-phase1,2020.1.3,Win32,60,,,,,,,,,,,,,,,,,,,,,,,,,,,,,,,,,,,,,
0,[],,,,,,,,,,,,,24,,2021-12-21_11h31.16.617,MemLear_ses-01_part-01_label-phase1,2020.1.3,Win32,60,space,17.3259,,0,0,0,0,0,0,1,stimuli/m_red.jpg,stimuli/Food.png,stimuli/Gamestoy & entertainment.png,stimuli/Vehicle.png,stimuli/Clothing.png,1,Food,1,1,stimuli/objects/chocolatecroissant.jpg,,,,,,,,,,,,,,,,,
0,[0],,,,,,,,,,,,,24,,2021-12-21_11h31.16.617,MemLear_ses-01_part-01_label-phase1,2020.1.3,Win32,60,,,2,0,0,0,1,1,1,1,stimuli/m_red.jpg,stimuli/Clothing.png,stimuli/Food.png,stimuli/Gamestoy & entertainment.png,stimuli/Vehicle.png,0,Vehicle,4,0,stimuli/objects/tricycle.jpg,1.1854,,,,,,,,,,,,,,,,
0,[0],,,,,,,,,,,,,24,,2021-12-21_11h31.16.617,MemLear_ses-01_part-01_label-phase1,2020.1.3,Win32,60,,,3,0,0,0,2,2,2,1,stimuli/m_blue.jpg,stimuli/Vehicle.png,stimuli/Clothing.png,stimuli/Gamestoy & entertainment.png,stimuli/Food.png,0,Food,4,0,stimuli/objects/cracker02.jpg,2.1145,,,,,,,,,,,,,,,,
0,[0],,,,,,,,,,,,,24,,2021-12-21_11h31.16.617,MemLear_ses-01_part-01_label-phase1,2020.1.3,Win32,60,,,1,0,0,0,3,3,3,1,stimuli/m_red.jpg,stimuli/Clothing.png,stimuli/Vehicle.png,stimuli/Gamestoy & entertainment.png,stimuli/Food.png,1,Food,4,1,stimuli/objects/hotdog.jpg,1.7606,,,,,,,,,,,,,,,,
0,"[0,0]",,,,,,,,,,,,,24,,2021-12-21_11h31.16.617,MemLear_ses-01_part-01_label-phase1,2020.1.3,Win32,60,,,4,0,0,0,4,4,4,1,stimuli/m_red.jpg,stimuli/Clothing.png,stimuli/Gamestoy & entertainment.png,stimuli/Food.png,stimuli/Vehicle.png,1,Food,3,1,stimuli/objects/kiwi03.jpg,1.9091,,,,,,,,,,,,,,,,
0,"[0,0,0]",,,,,,,,,,,,,24,,2021-12-21_11h31.16.617,MemLear_ses-01_part-01_label-phase1,2020.1.3,Win32,60,,,2,0,0,0,5,5,5,1,stimuli/m_red.jpg,stimuli/Vehicle.png,stimuli/Gamestoy & entertainment.png,stimuli/Food.png,stimuli/Clothing.png,1,Food,3,1,stimuli/objects/greenolive.jpg,2.9095,,,,,,,,,,,,,,,,
0,"[0,0,0,0]",,,,,,,,,,,,,24,,2021-12-21_11h31.16.617,MemLear_ses-01_part-01_label-phase1,2020.1.3,Win32,60,,,2,0,0,0,6,6,6,1,stimuli/m_blue.jpg,stimuli/Food.png,stimuli/Clothing.png,stimuli/Vehicle.png,stimuli/Gamestoy & entertainment.png,1,Gamestoy & entertainment,4,1,stimuli/objects/paperairplane.jpg,1.5438,,,,,,,,,,,,,,,,
0,"[0,0,0,0,0]",,,,,,,,,,,,,24,,2021-12-21_11h31.16.617,MemLear_ses-01_part-01_label-phase1,2020.1.3,Win32,60,,,4,0,0,0,7,7,7,1,stimuli/m_blue.jpg,stimuli/Vehicle.png,stimuli/Gamestoy & entertainment.png,stimuli/Food.png,stimuli/Clothing.png,1,Gamestoy & entertainment,2,1,stimuli/objects/toyanimal02.jpg,1.5811,,,,,,,,,,,,,,,,
0,"[0,0,0,0,0,0]",,,,,,,,,,,,,24,,2021-12-21_11h31.16.617,MemLear_ses-01_part-01_label-phase1,2020.1.3,Win32,60,,,1,0,0,0,8,8,8,1,stimuli/m_red.jpg,stimuli/Vehicle.png,stimuli/Clothing.png,stimuli/Gamestoy & entertainment.png,stimuli/Food.png,1,Food,4,1,stimuli/objects/casabamelon.jpg,1.3583,,,,,,,,,,,,,,,,
0,"[0,0,0,0,0,0,0]",,,,,,,,,,,,,24,,2021-12-21_11h31.16.617,MemLear_ses-01_part-01_label-phase1,2020.1.3,Win32,60,,,2,0,0,0,9,9,9,1,stimuli/m_blue.jpg,stimuli/Gamestoy & entertainment.png,stimuli/Clothing.png,stimuli/Vehicle.png,stimuli/Food.png,1,Gamestoy & entertainment,1,1,stimuli/objects/paddleball.jpg,2.3511,,,,,,,,,,,,,,,,
0,"[0,0,0,0,0,0,0,0]",,,,,,,,,,,,,24,,2021-12-21_11h31.16.617,MemLear_ses-01_part-01_label-phase1,2020.1.3,Win32,60,,,4,0,0,0,10,10,10,1,stimuli/m_blue.jpg,stimuli/Gamestoy & entertainment.png,stimuli/Clothing.png,stimuli/Food.png,stimuli/Vehicle.png,1,Gamestoy & entertainment,1,1,stimuli/objects/rockinghorse.jpg,2.7835,,,,,,,,,,,,,,,,
0,"[0,0,0,0,0,0,0,0,0]",,,,,,,,,,,,,24,,2021-12-21_11h31.16.617,MemLear_ses-01_part-01_label-phase1,2020.1.3,Win32,60,,,4,0,0,0,11,11,11,1,stimuli/m_red.jpg,stimuli/Vehicle.png,stimuli/Food.png,stimuli/Clothing.png,stimuli/Gamestoy & entertainment.png,1,Food,2,1,stimuli/objects/arugula.jpg,1.5481,,,,,,,,,,,,,,,,
0,"[0,0,0,0,0,0,0,0,0,0]",,,,,,,,,,,,,24,,2021-12-21_11h31.16.617,MemLear_ses-01_part-01_label-phase1,2020.1.3,Win32,60,,,,0,0,0,12,12,12,1,stimuli/m_blue.jpg,stimuli/Food.png,stimuli/Clothing.png,stimuli/Gamestoy & entertainment.png,stimuli/Vehicle.png,1,Gamestoy & entertainment,3,1,stimuli/objects/dartboard.jpg,,,,,,,,,,,,,,,,,
0,"[0,0,0,0,0,0,0,0,0,0,0]",,,,,,,,,,,,,24,,2021-12-21_11h31.16.617,MemLear_ses-01_part-01_label-phase1,2020.1.3,Win32,60,,,,0,0,0,13,13,13,1,stimuli/m_red.jpg,stimuli/Clothing.png,stimuli/Gamestoy & entertainment.png,stimuli/Vehicle.png,stimuli/Food.png,1,Food,4,1,stimuli/objects/chickenshishkebab.jpg,,,,,,,,,,,,,,,,,
0,"[0,0,0,0,0,0,0,0,0,0,0,0]",,,,,,,,,,,,,24,,2021-12-21_11h31.16.617,MemLear_ses-01_part-01_label-phase1,2020.1.3,Win32,60,,,,0,0,0,14,14,14,1,stimuli/m_red.jpg,stimuli/Clothing.png,stimuli/Gamestoy & entertainment.png,stimuli/Food.png,stimuli/Vehicle.png,1,Food,3,1,stimuli/objects/relish.jpg,,,,,,,,,,,,,,,,,
0,"[0,0,0,0,0,0,0,0,0,0,0,0,0]",,,,,,,,,,,,,24,,2021-12-21_11h31.16.617,MemLear_ses-01_part-01_label-phase1,2020.1.3,Win32,60,,,,0,0,0,15,15,15,1,stimuli/m_blue.jpg,stimuli/Food.png,stimuli/Gamestoy & entertainment.png,stimuli/Clothing.png,stimuli/Vehicle.png,1,Gamestoy & entertainment,2,1,stimuli/objects/toyanimal01.jpg,,,,,,,,,,,,,,,,,
0,"[0,0,0,0,0,0,0,0,0,0,0,0,0,0]",,,,,,,,,,,,,24,,2021-12-21_11h31.16.617,MemLear_ses-01_part-01_label-phase1,2020.1.3,Win32,60,,,,0,0,0,16,16,16,1,stimuli/m_red.jpg,stimuli/Food.png,stimuli/Vehicle.png,stimuli/Clothing.png,stimuli/Gamestoy & entertainment.png,0,Gamestoy & entertainment,4,0,stimuli/objects/toyshape.jpg,,,,,,,,,,,,,,,,,
0,"[0,0,0,0,0,0,0,0,0,0,0,0,0,0]",,,,,,,,,,,,,24,,2021-12-21_11h31.16.617,MemLear_ses-01_part-01_label-phase1,2020.1.3,Win32,60,,,,0,0,0,17,17,17,1,stimuli/m_blue.jpg,stimuli/Food.png,stimuli/Gamestoy & entertainment.png,stimuli/Vehicle.png,stimuli/Clothing.png,1,Gamestoy & entertainment,2,1,stimuli/objects/rattle.jpg,,,,,,,,,,,,,,,,,
0,"[0,0,0,0,0,0,0,0,0,0,0,0,0,0,0]",,,,,,,,,,,,,24,,2021-12-21_11h31.16.617,MemLear_ses-01_part-01_label-phase1,2020.1.3,Win32,60,,,,0,0,0,18,18,18,1,stimuli/m_blue.jpg,stimuli/Clothing.png,stimuli/Food.png,stimuli/Gamestoy & entertainment.png,stimuli/Vehicle.png,0,Vehicle,4,0,stimuli/objects/cementtruck.jpg,,,,,,,,,,,,,,,,,
0,"[0,0,0,0,0,0,0,0,0,0,0,0,0,0,0]",,,,,,,,,,,,,24,,2021-12-21_11h31.16.617,MemLear_ses-01_part-01_label-phase1,2020.1.3,Win32,60,,,,0,0,0,19,19,19,1,stimuli/m_red.jpg,stimuli/Vehicle.png,stimuli/Gamestoy & entertainment.png,stimuli/Clothing.png,stimuli/Food.png,0,Vehicle,1,0,stimuli/objects/scissorlift.jpg,,,,,,,,,,,,,,,,,
0,"[0,0,0,0,0,0,0,0,0,0,0,0,0,0,0]",,,,,,,,,,,,,24,,2021-12-21_11h31.16.617,MemLear_ses-01_part-01_label-phase1,2020.1.3,Win32,60,,,,0,0,0,20,20,20,1,stimuli/m_blue.jpg,stimuli/Gamestoy & entertainment.png,stimuli/Food.png,stimuli/Vehicle.png,stimuli/Clothing.png,1,Gamestoy & entertainment,1,1,stimuli/objects/toydinosaur.jpg,,,,,,,,,,,,,,,,,
0,"[0,0,0,0,0,0,0,0,0,0,0,0,0,0,0,0]",,,,,,,,,,,,,24,,2021-12-21_11h31.16.617,MemLear_ses-01_part-01_label-phase1,2020.1.3,Win32,60,,,,0,0,0,21,21,21,1,stimuli/m_blue.jpg,stimuli/Clothing.png,stimuli/Vehicle.png,stimuli/Food.png,stimuli/Gamestoy & entertainment.png,1,Gamestoy & entertainment,4,1,stimuli/objects/sandbagthrowgame.jpg,,,,,,,,,,,,,,,,,
0,"[0,0,0,0,0,0,0,0,0,0,0,0,0,0,0,0,0]",,,,,,,,,,,,,24,,2021-12-21_11h31.16.617,MemLear_ses-01_part-01_label-phase1,2020.1.3,Win32,60,,,,0,0,0,22,22,22,1,stimuli/m_blue.jpg,stimuli/Food.png,stimuli/Gamestoy & entertainment.png,stimuli/Clothing.png,stimuli/Vehicle.png,0,Clothing,3,0,stimuli/objects/hikingshoe01.jpg,,,,,,,,,,,,,,,,,
0,"[0,0,0,0,0,0,0,0,0,0,0,0,0,0,0,0,0]",,,,,,,,,,,,,24,,2021-12-21_11h31.16.617,MemLear_ses-01_part-01_label-phase1,2020.1.3,Win32,60,,,,0,0,0,23,23,23,1,stimuli/m_blue.jpg,stimuli/Food.png,stimuli/Clothing.png,stimuli/Vehicle.png,stimuli/Gamestoy & entertainment.png,1,Gamestoy & entertainment,4,1,stimuli/objects/beachpaddle01a.jpg,,,,,,,,,,,,,,,,,
0,"[0,0,0,0,0,0,0,0,0,0,0,0,0,0,0,0,0,0]",,,,,,,,,,,,,24,,2021-12-21_11h31.16.617,MemLear_ses-01_part-01_label-phase1,2020.1.3,Win32,60,,,,0,0,0,24,24,24,1,stimuli/m_red.jpg,stimuli/Food.png,stimuli/Gamestoy & entertainment.png,stimuli/Clothing.png,stimuli/Vehicle.png,1,Food,1,1,stimuli/objects/apricot.jpg,,,,,,,,,,,,,,,,,
0,"[0,0,0,0,0,0,0,0,0,0,0,0,0,0,0,0,0,0,0]",,,,,,,,,,,,,24,,2021-12-21_11h31.16.617,MemLear_ses-01_part-01_label-phase1,2020.1.3,Win32,60,,,,0,0,0,25,25,25,1,stimuli/m_blue.jpg,stimuli/Food.png,stimuli/Vehicle.png,stimuli/Gamestoy & entertainment.png,stimuli/Clothing.png,0,Food,1,0,stimuli/objects/croissant01.jpg,,,,,,,,,,,,,,,,,
0,"[0,0,0,0,0,0,0,0,0,0,0,0,0,0,0,0,0,0,0]",,,,,,,,,,,,,24,,2021-12-21_11h31.16.617,MemLear_ses-01_part-01_label-phase1,2020.1.3,Win32,60,,,,0,0,0,26,26,26,1,stimuli/m_red.jpg,stimuli/Clothing.png,stimuli/Food.png,stimuli/Vehicle.png,stimuli/Gamestoy & entertainment.png,1,Food,2,1,stimuli/objects/icecreamcone01a.jpg,,,,,,,,,,,,,,,,,
0,"[0,0,0,0,0,0,0,0,0,0,0,0,0,0,0,0,0,0,0,0]",,,,,,,,,,,,,24,,2021-12-21_11h31.16.617,MemLear_ses-01_part-01_label-phase1,2020.1.3,Win32,60,,,,0,0,0,27,27,27,1,stimuli/m_blue.jpg,stimuli/Clothing.png,stimuli/Food.png,stimuli/Vehicle.png,stimuli/Gamestoy & entertainment.png,0,Clothing,1,0,stimuli/objects/tie02.jpg,,,,,,,,,,,,,,,,,
0,"[0,0,0,0,0,0,0,0,0,0,0,0,0,0,0,0,0,0,0,0]",,,,,,,,,,,,,24,,2021-12-21_11h31.16.617,MemLear_ses-01_part-01_label-phase1,2020.1.3,Win32,60,,,,0,0,0,28,28,28,1,stimuli/m_blue.jpg,stimuli/Vehicle.png,stimuli/Gamestoy & entertainment.png,stimuli/Clothing.png,stimuli/Food.png,1,Gamestoy & entertainment,2,1,stimuli/objects/marble.jpg,,,,,,,,,,,,,,,,,
0,"[0,0,0,0,0,0,0,0,0,0,0,0,0,0,0,0,0,0,0,0,0]",,,,,,,,,,,,,24,,2021-12-21_11h31.16.617,MemLear_ses-01_part-01_label-phase1,2020.1.3,Win32,60,,,,0,0,0,29,29,29,1,stimuli/m_red.jpg,stimuli/Gamestoy & entertainment.png,stimuli/Vehicle.png,stimuli/Food.png,stimuli/Clothing.png,1,Food,3,1,stimuli/objects/baguette01.jpg,,,,,,,,,,,,,,,,,
0,"[0,0,0,0,0,0,0,0,0,0,0,0,0,0,0,0,0,0,0,0,0,0]",,,,,,,,,,,,,24,,2021-12-21_11h31.16.617,MemLear_ses-01_part-01_label-phase1,2020.1.3,Win32,60,,,,0,0,0,30,30,30,1,stimuli/m_blue.jpg,stimuli/Gamestoy & entertainment.png,stimuli/Vehicle.png,stimuli/Food.png,stimuli/Clothing.png,1,Gamestoy & entertainment,1,1,stimuli/objects/pusharoundtoy.jpg,,,,,,,,,,,,,,,,,
0,"[0,0,0,0,0,0,0,0,0,0,0,0,0,0,0,0,0,0,0,0,0,0,0]",,,,,,,,,,,,,24,,2021-12-21_11h31.16.617,MemLear_ses-01_part-01_label-phase1,2020.1.3,Win32,60,,,,0,0,0,31,31,31,1,stimuli/m_blue.jpg,stimuli/Food.png,stimuli/Vehicle.png,stimuli/Clothing.png,stimuli/Gamestoy & entertainment.png,1,Gamestoy & entertainment,4,1,stimuli/objects/puzzlepiece.jpg,,,,,,,,,,,,,,,,,
1,"[0,0,0,0,0,0,0,0,0,0,0,0,0,0,0,0,0,0,0,0,0,0,0,0]",,,,,,,,,,,,,24,,2021-12-21_11h31.16.617,MemLear_ses-01_part-01_label-phase1,2020.1.3,Win32,60,,,1,1,1,0,32,32,32,1,stimuli/m_blue.jpg,stimuli/Gamestoy & entertainment.png,stimuli/Vehicle.png,stimuli/Clothing.png,stimuli/Food.png,1,Gamestoy & entertainment,1,1,stimuli/objects/interlockingbuildingblock03b.jpg,2.8621,,,,,,,,,,,,,,,,
1,"[0,0,0,0,0,0,0,0,0,0,0,0,0,0,0,0,0,0,0,0,0,0,0,0,1]",,,,,,,,,,,,,24,,2021-12-21_11h31.16.617,MemLear_ses-01_part-01_label-phase1,2020.1.3,Win32,60,,,4,1,1,0,33,33,33,1,stimuli/m_blue.jpg,stimuli/Vehicle.png,stimuli/Food.png,stimuli/Clothing.png,stimuli/Gamestoy & entertainment.png,1,Gamestoy & entertainment,4,1,stimuli/objects/airhockeytable.jpg,1.5838,,,,,,,,,,,,,,,,
1,"[0,0,0,0,0,0,0,0,0,0,0,0,0,0,0,0,0,0,0,0,0,0,0,0,1,1]",,,,,,,,,,,,,24,,2021-12-21_11h31.16.617,MemLear_ses-01_part-01_label-phase1,2020.1.3,Win32,60,,,2,1,1,0,34,34,34,1,stimuli/m_red.jpg,stimuli/Vehicle.png,stimuli/Food.png,stimuli/Gamestoy & entertainment.png,stimuli/Clothing.png,1,Food,2,1,stimuli/objects/tortilla.jpg,2.6136,,,,,,,,,,,,,,,,
0,"[0,0,0,0,0,0,0,0,0,0,0,0,0,0,0,0,0,0,0,0,0,0,0,0,1,1,1]",,,,,,,,,,,,,24,,2021-12-21_11h31.16.617,MemLear_ses-01_part-01_label-phase1,2020.1.3,Win32,60,,,4,0,1,0,35,35,35,1,stimuli/m_red.jpg,stimuli/Clothing.png,stimuli/Vehicle.png,stimuli/Gamestoy & entertainment.png,stimuli/Food.png,0,Gamestoy & entertainment,3,0,stimuli/objects/chessknight03a.jpg,2.6472,,,,,,,,,,,,,,,,
0,"[0,0,0,0,0,0,0,0,0,0,0,0,0,0,0,0,0,0,0,0,0,0,0,0,1,1,1]",,,,,,,,,,,,,24,,2021-12-21_11h31.16.617,MemLear_ses-01_part-01_label-phase1,2020.1.3,Win32,60,,,1,0,0,0,36,36,36,1,stimuli/m_blue.jpg,stimuli/Clothing.png,stimuli/Food.png,stimuli/Gamestoy & entertainment.png,stimuli/Vehicle.png,1,Gamestoy & entertainment,3,1,stimuli/objects/toyanimal05.jpg,2.6691,,,,,,,,,,,,,,,,
1,"[0,0,0,0,0,0,0,0,0,0,0,0,0,0,0,0,0,0,0,0,0,0,0,0,1,1,1,0]",,,,,,,,,,,,,24,,2021-12-21_11h31.16.617,MemLear_ses-01_part-01_label-phase1,2020.1.3,Win32,60,,,4,1,1,0,37,37,37,1,stimuli/m_blue.jpg,stimuli/Vehicle.png,stimuli/Food.png,stimuli/Clothing.png,stimuli/Gamestoy & entertainment.png,1,Gamestoy & entertainment,4,1,stimuli/objects/puppettheatre.jpg,1.1501,,,,,,,,,,,,,,,,
0,"[0,0,0,0,0,0,0,0,0,0,0,0,0,0,0,0,0,0,0,0,0,0,0,0,1,1,1,0,1]",,,,,,,,,,,,,24,,2021-12-21_11h31.16.617,MemLear_ses-01_part-01_label-phase1,2020.1.3,Win32,60,,,3,0,1,0,38,38,38,1,stimuli/m_blue.jpg,stimuli/Gamestoy & entertainment.png,stimuli/Clothing.png,stimuli/Vehicle.png,stimuli/Food.png,0,Food,4,0,stimuli/objects/salsa.jpg,1.2271,,,,,,,,,,,,,,,,
0,"[0,0,0,0,0,0,0,0,0,0,0,0,0,0,0,0,0,0,0,0,0,0,0,0,1,1,1,0,1]",,,,,,,,,,,,,24,,2021-12-21_11h31.16.617,MemLear_ses-01_part-01_label-phase1,2020.1.3,Win32,60,,,2,0,0,0,39,39,39,1,stimuli/m_red.jpg,stimuli/Gamestoy & entertainment.png,stimuli/Vehicle.png,stimuli/Clothing.png,stimuli/Food.png,1,Food,4,1,stimuli/objects/walnut01c.jpg,1.1764,,,,,,,,,,,,,,,,
0,"[0,0,0,0,0,0,0,0,0,0,0,0,0,0,0,0,0,0,0,0,0,0,0,0,1,1,1,0,1,0]",,,,,,,,,,,,,24,,2021-12-21_11h31.16.617,MemLear_ses-01_part-01_label-phase1,2020.1.3,Win32,60,,,3,0,0,0,40,40,40,1,stimuli/m_red.jpg,stimuli/Gamestoy & entertainment.png,stimuli/Clothing.png,stimuli/Vehicle.png,stimuli/Food.png,1,Food,4,1,stimuli/objects/potato02b.jpg,2.045,,,,,,,,,,,,,,,,
0,"[0,0,0,0,0,0,0,0,0,0,0,0,0,0,0,0,0,0,0,0,0,0,0,0,1,1,1,0,1,0,0]",,,,,,,,,,,,,24,,2021-12-21_11h31.16.617,MemLear_ses-01_part-01_label-phase1,2020.1.3,Win32,60,,,3,0,0,0,41,41,41,1,stimuli/m_blue.jpg,stimuli/Clothing.png,stimuli/Vehicle.png,stimuli/Gamestoy & entertainment.png,stimuli/Food.png,0,Clothing,1,0,stimuli/objects/sheriffhat.jpg,1.3405,,,,,,,,,,,,,,,,
1,"[0,0,0,0,0,0,0,0,0,0,0,0,0,0,0,0,0,0,0,0,0,0,0,0,1,1,1,0,1,0,0]",,,,,,,,,,,,,24,,2021-12-21_11h31.16.617,MemLear_ses-01_part-01_label-phase1,2020.1.3,Win32,60,,,4,1,1,0,42,42,42,1,stimuli/m_red.jpg,stimuli/Vehicle.png,stimuli/Gamestoy & entertainment.png,stimuli/Clothing.png,stimuli/Food.png,1,Food,4,1,stimuli/objects/spaghetti01.jpg,0.793,,,,,,,,,,,,,,,,
1,"[0,0,0,0,0,0,0,0,0,0,0,0,0,0,0,0,0,0,0,0,0,0,0,0,1,1,1,0,1,0,0,1]",,,,,,,,,,,,,24,,2021-12-21_11h31.16.617,MemLear_ses-01_part-01_label-phase1,2020.1.3,Win32,60,,,4,1,1,0,43,43,43,1,stimuli/m_red.jpg,stimuli/Gamestoy & entertainment.png,stimuli/Vehicle.png,stimuli/Clothing.png,stimuli/Food.png,1,Food,4,1,stimuli/objects/zucchini01.jpg,0.8959,,,,,,,,,,,,,,,,
0,"[0,0,0,0,0,0,0,0,0,0,0,0,0,0,0,0,0,0,0,0,0,0,0,0,1,1,1,0,1,0,0,1,1]",,,,,,,,,,,,,24,,2021-12-21_11h31.16.617,MemLear_ses-01_part-01_label-phase1,2020.1.3,Win32,60,,,,0,0,0,44,44,44,1,stimuli/m_red.jpg,stimuli/Gamestoy & entertainment.png,stimuli/Vehicle.png,stimuli/Food.png,stimuli/Clothing.png,1,Food,3,1,stimuli/objects/donut.jpg,,,,,,,,,,,,,,,,,
1,"[0,0,0,0,0,0,0,0,0,0,0,0,0,0,0,0,0,0,0,0,0,0,0,0,1,1,1,0,1,0,0,1,1,0]",,,,,,,,,,,,,24,,2021-12-21_11h31.16.617,MemLear_ses-01_part-01_label-phase1,2020.1.3,Win32,60,,,2,1,1,0,45,45,45,1,stimuli/m_blue.jpg,stimuli/Clothing.png,stimuli/Gamestoy & entertainment.png,stimuli/Food.png,stimuli/Vehicle.png,1,Gamestoy & entertainment,2,1,stimuli/objects/bridgestick.jpg,0.9226,,,,,,,,,,,,,,,,
1,"[0,0,0,0,0,0,0,0,0,0,0,0,0,0,0,0,0,0,0,0,0,0,0,0,1,1,1,0,1,0,0,1,1,0,1]",,,,,,,,,,,,,24,,2021-12-21_11h31.16.617,MemLear_ses-01_part-01_label-phase1,2020.1.3,Win32,60,,,1,1,1,0,46,46,46,1,stimuli/m_red.jpg,stimuli/Food.png,stimuli/Clothing.png,stimuli/Vehicle.png,stimuli/Gamestoy & entertainment.png,1,Food,1,1,stimuli/objects/cookie01.jpg,1.6658,,,,,,,,,,,,,,,,
0,"[0,0,0,0,0,0,0,0,0,0,0,0,0,0,0,0,0,0,0,0,0,0,0,0,1,1,1,0,1,0,0,1,1,0,1,1]",,,,,,,,,,,,,24,,2021-12-21_11h31.16.617,MemLear_ses-01_part-01_label-phase1,2020.1.3,Win32,60,,,2,0,1,0,47,47,47,1,stimuli/m_red.jpg,stimuli/Clothing.png,stimuli/Food.png,stimuli/Vehicle.png,stimuli/Gamestoy & entertainment.png,0,Gamestoy & entertainment,4,0,stimuli/objects/rubikcube.jpg,0.9169,,,,,,,,,,,,,,,,
1,"[0,0,0,0,0,0,0,0,0,0,0,0,0,0,0,0,0,0,0,0,0,0,0,0,1,1,1,0,1,0,0,1,1,0,1,1]",,,,,,,,,,,,,24,,2021-12-21_11h31.16.617,MemLear_ses-01_part-01_label-phase1,2020.1.3,Win32,60,,,3,1,1,0,48,48,48,1,stimuli/m_red.jpg,stimuli/Clothing.png,stimuli/Vehicle.png,stimuli/Food.png,stimuli/Gamestoy & entertainment.png,1,Food,3,1,stimuli/objects/grape01.jpg,0.9354,,,,,,,,,,,,,,,,
0,"[0,0,0,0,0,0,0,0,0,0,0,0,0,0,0,0,0,0,0,0,0,0,0,0,1,1,1,0,1,0,0,1,1,0,1,1,1]",,,,,,,,,,,,,24,,2021-12-21_11h31.16.617,MemLear_ses-01_part-01_label-phase1,2020.1.3,Win32,60,,,2,0,1,0,49,49,49,1,stimuli/m_blue.jpg,stimuli/Vehicle.png,stimuli/Gamestoy & entertainment.png,stimuli/Clothing.png,stimuli/Food.png,0,Vehicle,1,0,stimuli/objects/schoolbus.jpg,1.1937,,,,,,,,,,,,,,,,
1,"[0,0,0,0,0,0,0,0,0,0,0,0,0,0,0,0,0,0,0,0,0,0,0,0,1,1,1,0,1,0,0,1,1,0,1,1,1]",,,,,,,,,,,,,24,,2021-12-21_11h31.16.617,MemLear_ses-01_part-01_label-phase1,2020.1.3,Win32,60,,,1,1,1,0,50,50,50,1,stimuli/m_blue.jpg,stimuli/Gamestoy & entertainment.png,stimuli/Vehicle.png,stimuli/Food.png,stimuli/Clothing.png,1,Gamestoy & entertainment,1,1,stimuli/objects/pooltable.jpg,1.4661,,,,,,,,,,,,,,,,
0,"[0,0,0,0,0,0,0,0,0,0,0,0,0,0,0,0,0,0,0,0,0,0,0,0,1,1,1,0,1,0,0,1,1,0,1,1,1,1]",,,,,,,,,,,,,24,,2021-12-21_11h31.16.617,MemLear_ses-01_part-01_label-phase1,2020.1.3,Win32,60,,,1,0,1,0,51,51,51,1,stimuli/m_red.jpg,stimuli/Food.png,stimuli/Gamestoy & entertainment.png,stimuli/Clothing.png,stimuli/Vehicle.png,0,Gamestoy & entertainment,2,0,stimuli/objects/toyanimal03.jpg,0.9107,,,,,,,,,,,,,,,,
1,"[0,0,0,0,0,0,0,0,0,0,0,0,0,0,0,0,0,0,0,0,0,0,0,0,1,1,1,0,1,0,0,1,1,0,1,1,1,1]",,,,,,,,,,,,,24,,2021-12-21_11h31.16.617,MemLear_ses-01_part-01_label-phase1,2020.1.3,Win32,60,,,1,1,1,0,52,52,52,1,stimuli/m_red.jpg,stimuli/Food.png,stimuli/Clothing.png,stimuli/Vehicle.png,stimuli/Gamestoy & entertainment.png,1,Food,1,1,stimuli/objects/almond.jpg,2.0758,,,,,,,,,,,,,,,,
1,"[0,0,0,0,0,0,0,0,0,0,0,0,0,0,0,0,0,0,0,0,0,0,0,0,1,1,1,0,1,0,0,1,1,0,1,1,1,1,1]",,,,,,,,,,,,,24,,2021-12-21_11h31.16.617,MemLear_ses-01_part-01_label-phase1,2020.1.3,Win32,60,,,3,1,1,0,53,53,53,1,stimuli/m_blue.jpg,stimuli/Clothing.png,stimuli/Vehicle.png,stimuli/Gamestoy & entertainment.png,stimuli/Food.png,1,Gamestoy & entertainment,3,1,stimuli/objects/jokercard.jpg,0.8077,,,,,,,,,,,,,,,,
,,,,,,,,,,,,,,24,,2021-12-21_11h31.16.617,MemLear_ses-01_part-01_label-phase1,2020.1.3,Win32,60,,,,,,,,,,,,,,,,,,,,,,n,107.506,0,0,0,0,1,,,,,,,,,
,,,,,,,,,,,,,,24,,2021-12-21_11h31.16.617,MemLear_ses-01_part-01_label-phase1,2020.1.3,Win32,60,,,,,,,,,,,stimuli/m_black.jpg,stimuli/Hand labour tool & accessory.png,stimuli/Outdoor activity & sport item.png,stimuli/Kitchen & utensil.png,stimuli/Electronic device & accessory.png,,Outdoor activity & sport item,2,1,stimuli/objects/gymnasticring.jpg,,,,,,,,,2,1,0.9811,0,0,0,0,1,1
,,,,,,,,,,,,,,24,,2021-12-21_11h31.16.617,MemLear_ses-01_part-01_label-phase1,2020.1.3,Win32,60,,,,,,,,,,,stimuli/m_black.jpg,stimuli/Outdoor activity & sport item.png,stimuli/Kitchen & utensil.png,stimuli/Electronic device & accessory.png,stimuli/Hand labour tool & accessory.png,,Outdoor activity & sport item,1,1,stimuli/objects/exercisebench.jpg,,,,,,,,,1,1,1.6021,0,1,1,1,1,1
,,,,,,,,,,,,,,24,,2021-12-21_11h31.16.617,MemLear_ses-01_part-01_label-phase1,2020.1.3,Win32,60,,,,,,,,,,,stimuli/m_orange.jpg,stimuli/Outdoor activity & sport item.png,stimuli/Kitchen & utensil.png,stimuli/Hand labour tool & accessory.png,stimuli/Electronic device & accessory.png,,Hand labour tool & accessory,3,1,stimuli/objects/jumpercables.jpg,,,,,,,,,,0,,0,2,2,2,1,0
,,,,,,,,,,,,,,24,,2021-12-21_11h31.16.617,MemLear_ses-01_part-01_label-phase1,2020.1.3,Win32,60,,,,,,,,,,,stimuli/m_orange.jpg,stimuli/Electronic device & accessory.png,stimuli/Hand labour tool & accessory.png,stimuli/Kitchen & utensil.png,stimuli/Outdoor activity & sport item.png,,Hand labour tool & accessory,2,1,stimuli/objects/pipewrench.jpg,,,,,,,,,1,0,1.0257,0,3,3,3,1,0
,,,,,,,,,,,,,,24,,2021-12-21_11h31.16.617,MemLear_ses-01_part-01_label-phase1,2020.1.3,Win32,60,,,,,,,,,,,stimuli/m_orange.jpg,stimuli/Kitchen & utensil.png,stimuli/Hand labour tool & accessory.png,stimuli/Outdoor activity & sport item.png,stimuli/Electronic device & accessory.png,,Hand labour tool & accessory,2,1,stimuli/objects/tape02a.jpg,,,,,,,,,2,1,1.616,0,4,4,4,1,0
,,,,,,,,,,,,,,24,,2021-12-21_11h31.16.617,MemLear_ses-01_part-01_label-phase1,2020.1.3,Win32,60,,,,,,,,,,,stimuli/m_black.jpg,stimuli/Kitchen & utensil.png,stimuli/Hand labour tool & accessory.png,stimuli/Outdoor activity & sport item.png,stimuli/Electronic device & accessory.png,,Outdoor activity & sport item,3,1,stimuli/objects/swing.jpg,,,,,,,,,3,1,0.9186,0,5,5,5,1,1
,,,,,,,,,,,,,,24,,2021-12-21_11h31.16.617,MemLear_ses-01_part-01_label-phase1,2020.1.3,Win32,60,,,,,,,,,,,stimuli/m_black.jpg,stimuli/Hand labour tool & accessory.png,stimuli/Electronic device & accessory.png,stimuli/Kitchen & utensil.png,stimuli/Outdoor activity & sport item.png,,Kitchen & utensil,3,0,stimuli/objects/tray.jpg,,,,,,,,,4,0,0.9446,0,6,6,6,1,1
,,,,,,,,,,,,,,24,,2021-12-21_11h31.16.617,MemLear_ses-01_part-01_label-phase1,2020.1.3,Win32,60,,,,,,,,,,,stimuli/m_orange.jpg,stimuli/Hand labour tool & accessory.png,stimuli/Outdoor activity & sport item.png,stimuli/Electronic device & accessory.png,stimuli/Kitchen & utensil.png,,Hand labour tool & accessory,1,1,stimuli/objects/wirestripper.jpg,,,,,,,,,1,1,1.281,0,7,7,7,1,0
,,,,,,,,,,,,,,24,,2021-12-21_11h31.16.617,MemLear_ses-01_part-01_label-phase1,2020.1.3,Win32,60,,,,,,,,,,,stimuli/m_orange.jpg,stimuli/Outdoor activity & sport item.png,stimuli/Electronic device & accessory.png,stimuli/Kitchen & utensil.png,stimuli/Hand labour tool & accessory.png,,Hand labour tool & accessory,4,1,stimuli/objects/carjack.jpg,,,,,,,,,4,1,2.3051,0,8,8,8,1,0
,,,,,,,,,,,,,,24,,2021-12-21_11h31.16.617,MemLear_ses-01_part-01_label-phase1,2020.1.3,Win32,60,,,,,,,,,,,stimuli/m_orange.jpg,stimuli/Electronic device & accessory.png,stimuli/Outdoor activity & sport item.png,stimuli/Hand labour tool & accessory.png,stimuli/Kitchen & utensil.png,,Hand labour tool & accessory,3,1,stimuli/objects/hedgeshears.jpg,,,,,,,,,3,1,1.0856,0,9,9,9,1,0
,,,,,,,,,,,,,,24,,2021-12-21_11h31.16.617,MemLear_ses-01_part-01_label-phase1,2020.1.3,Win32,60,,,,,,,,,,,stimuli/m_orange.jpg,stimuli/Kitchen & utensil.png,stimuli/Outdoor activity & sport item.png,stimuli/Electronic device & accessory.png,stimuli/Hand labour tool & accessory.png,,Hand labour tool & accessory,4,1,stimuli/objects/jumpingjack.jpg,,,,,,,,,3,0,1.817,0,10,10,10,1,0
,,,,,,,,,,,,,,24,,2021-12-21_11h31.16.617,MemLear_ses-01_part-01_label-phase1,2020.1.3,Win32,60,,,,,,,,,,,stimuli/m_black.jpg,stimuli/Electronic device & accessory.png,stimuli/Kitchen & utensil.png,stimuli/Hand labour tool & accessory.png,stimuli/Outdoor activity & sport item.png,,Outdoor activity & sport item,4,1,stimuli/objects/beachumbrella01.jpg,,,,,,,,,4,1,1.5013,0,11,11,11,1,1
,,,,,,,,,,,,,,24,,2021-12-21_11h31.16.617,MemLear_ses-01_part-01_label-phase1,2020.1.3,Win32,60,,,,,,,,,,,stimuli/m_orange.jpg,stimuli/Kitchen & utensil.png,stimuli/Outdoor activity & sport item.png,stimuli/Electronic device & accessory.png,stimuli/Hand labour tool & accessory.png,,Hand labour tool & accessory,4,1,stimuli/objects/metalbrush.jpg,,,,,,,,,1,0,3.902,0,12,12,12,1,0
,,,,,,,,,,,,,,24,,2021-12-21_11h31.16.617,MemLear_ses-01_part-01_label-phase1,2020.1.3,Win32,60,,,,,,,,,,,stimuli/m_orange.jpg,stimuli/Outdoor activity & sport item.png,stimuli/Electronic device & accessory.png,stimuli/Kitchen & utensil.png,stimuli/Hand labour tool & accessory.png,,Hand labour tool & accessory,4,1,stimuli/objects/gavel.jpg,,,,,,,,,4,1,2.1772,0,13,13,13,1,0
,,,,,,,,,,,,,,24,,2021-12-21_11h31.16.617,MemLear_ses-01_part-01_label-phase1,2020.1.3,Win32,60,,,,,,,,,,,stimuli/m_black.jpg,stimuli/Outdoor activity & sport item.png,stimuli/Electronic device & accessory.png,stimuli/Hand labour tool & accessory.png,stimuli/Kitchen & utensil.png,,Hand labour tool & accessory,3,0,stimuli/objects/shopvac.jpg,,,,,,,,,1,0,1.3755,0,14,14,14,1,1
,,,,,,,,,,,,,,24,,2021-12-21_11h31.16.617,MemLear_ses-01_part-01_label-phase1,2020.1.3,Win32,60,,,,,,,,,,,stimuli/m_orange.jpg,stimuli/Kitchen & utensil.png,stimuli/Outdoor activity & sport item.png,stimuli/Hand labour tool & accessory.png,stimuli/Electronic device & accessory.png,,Hand labour tool & accessory,3,1,stimuli/objects/file.jpg,,,,,,,,,3,1,2.9411,0,15,15,15,1,0
,,,,,,,,,,,,,,24,,2021-12-21_11h31.16.617,MemLear_ses-01_part-01_label-phase1,2020.1.3,Win32,60,,,,,,,,,,,stimuli/m_orange.jpg,stimuli/Kitchen & utensil.png,stimuli/Electronic device & accessory.png,stimuli/Outdoor activity & sport item.png,stimuli/Hand labour tool & accessory.png,,Hand labour tool & accessory,4,1,stimuli/objects/gardenshears01a.jpg,,,,,,,,,4,1,2.0853,0,16,16,16,1,0
,,,,,,,,,,,,,,24,,2021-12-21_11h31.16.617,MemLear_ses-01_part-01_label-phase1,2020.1.3,Win32,60,,,,,,,,,,,stimuli/m_black.jpg,stimuli/Kitchen & utensil.png,stimuli/Hand labour tool & accessory.png,stimuli/Electronic device & accessory.png,stimuli/Outdoor activity & sport item.png,,Electronic device & accessory,3,0,stimuli/objects/avcable.jpg,,,,,,,,,4,0,1.718,0,17,17,17,1,1
,,,,,,,,,,,,,,24,,2021-12-21_11h31.16.617,MemLear_ses-01_part-01_label-phase1,2020.1.3,Win32,60,,,,,,,,,,,stimuli/m_orange.jpg,stimuli/Kitchen & utensil.png,stimuli/Electronic device & accessory.png,stimuli/Hand labour tool & accessory.png,stimuli/Outdoor activity & sport item.png,,Hand labour tool & accessory,3,1,stimuli/objects/bowrake.jpg,,,,,,,,,2,0,1.8849,0,18,18,18,1,0
,,,,,,,,,,,,,,24,,2021-12-21_11h31.16.617,MemLear_ses-01_part-01_label-phase1,2020.1.3,Win32,60,,,,,,,,,,,stimuli/m_black.jpg,stimuli/Kitchen & utensil.png,stimuli/Hand labour tool & accessory.png,stimuli/Outdoor activity & sport item.png,stimuli/Electronic device & accessory.png,,Outdoor activity & sport item,3,1,stimuli/objects/bikepump01.jpg,,,,,,,,,3,1,0.9832,0,19,19,19,1,1
,,,,,,,,,,,,,,24,,2021-12-21_11h31.16.617,MemLear_ses-01_part-01_label-phase1,2020.1.3,Win32,60,,,,,,,,,,,stimuli/m_black.jpg,stimuli/Outdoor activity & sport item.png,stimuli/Hand labour tool & accessory.png,stimuli/Kitchen & utensil.png,stimuli/Electronic device & accessory.png,,Outdoor activity & sport item,1,1,stimuli/objects/golfball.jpg,,,,,,,,,1,1,1.4012,0,20,20,20,1,1
,,,,,,,,,,,,,,24,,2021-12-21_11h31.16.617,MemLear_ses-01_part-01_label-phase1,2020.1.3,Win32,60,,,,,,,,,,,stimuli/m_black.jpg,stimuli/Kitchen & utensil.png,stimuli/Outdoor activity & sport item.png,stimuli/Electronic device & accessory.png,stimuli/Hand labour tool & accessory.png,,Hand labour tool & accessory,4,0,stimuli/objects/caulking.jpg,,,,,,,,,2,0,1.1119,0,21,21,21,1,1
,,,,,,,,,,,,,,24,,2021-12-21_11h31.16.617,MemLear_ses-01_part-01_label-phase1,2020.1.3,Win32,60,,,,,,,,,,,stimuli/m_orange.jpg,stimuli/Electronic device & accessory.png,stimuli/Kitchen & utensil.png,stimuli/Outdoor activity & sport item.png,stimuli/Hand labour tool & accessory.png,,Hand labour tool & accessory,4,1,stimuli/objects/staplegun.jpg,,,,,,,,,,0,,0,22,22,22,1,0
,,,,,,,,,,,,,,24,,2021-12-21_11h31.16.617,MemLear_ses-01_part-01_label-phase1,2020.1.3,Win32,60,,,,,,,,,,,stimuli/m_black.jpg,stimuli/Electronic device & accessory.png,stimuli/Hand labour tool & accessory.png,stimuli/Kitchen & utensil.png,stimuli/Outdoor activity & sport item.png,,Outdoor activity & sport item,4,1,stimuli/objects/tennisball01b.jpg,,,,,,,,,4,1,1.3269,0,23,23,23,1,1
,,,,,,,,,,,,,,24,,2021-12-21_11h31.16.617,MemLear_ses-01_part-01_label-phase1,2020.1.3,Win32,60,,,,,,,,,,,stimuli/m_black.jpg,stimuli/Kitchen & utensil.png,stimuli/Electronic device & accessory.png,stimuli/Outdoor activity & sport item.png,stimuli/Hand labour tool & accessory.png,,Outdoor activity & sport item,3,1,stimuli/objects/umbrella04.jpg,,,,,,,,,3,1,0.975,0,24,24,24,1,1
,,,,,,,,,,,,,,24,,2021-12-21_11h31.16.617,MemLear_ses-01_part-01_label-phase1,2020.1.3,Win32,60,,,,,,,,,,,stimuli/m_orange.jpg,stimuli/Hand labour tool & accessory.png,stimuli/Electronic device & accessory.png,stimuli/Outdoor activity & sport item.png,stimuli/Kitchen & utensil.png,,Hand labour tool & accessory,1,1,stimuli/objects/flashlight02b.jpg,,,,,,,,,2,0,2.3706,0,25,25,25,1,0
,,,,,,,,,,,,,,24,,2021-12-21_11h31.16.617,MemLear_ses-01_part-01_label-phase1,2020.1.3,Win32,60,,,,,,,,,,,stimuli/m_orange.jpg,stimuli/Kitchen & utensil.png,stimuli/Hand labour tool & accessory.png,stimuli/Outdoor activity & sport item.png,stimuli/Electronic device & accessory.png,,Hand labour tool & accessory,2,1,stimuli/objects/lock03a.jpg,,,,,,,,,2,1,2.2512,0,26,26,26,1,0
,,,,,,,,,,,,,,24,,2021-12-21_11h31.16.617,MemLear_ses-01_part-01_label-phase1,2020.1.3,Win32,60,,,,,,,,,,,stimuli/m_orange.jpg,stimuli/Electronic device & accessory.png,stimuli/Outdoor activity & sport item.png,stimuli/Kitchen & utensil.png,stimuli/Hand labour tool & accessory.png,,Hand labour tool & accessory,4,1,stimuli/objects/sledgehammer.jpg,,,,,,,,,1,0,0.8346,0,27,27,27,1,0
,,,,,,,,,,,,,,24,,2021-12-21_11h31.16.617,MemLear_ses-01_part-01_label-phase1,2020.1.3,Win32,60,,,,,,,,,,,stimuli/m_black.jpg,stimuli/Electronic device & accessory.png,stimuli/Outdoor activity & sport item.png,stimuli/Kitchen & utensil.png,stimuli/Hand labour tool & accessory.png,,Outdoor activity & sport item,2,1,stimuli/objects/binoculars01b.jpg,,,,,,,,,2,1,1.5494,0,28,28,28,1,1
,,,,,,,,,,,,,,24,,2021-12-21_11h31.16.617,MemLear_ses-01_part-01_label-phase1,2020.1.3,Win32,60,,,,,,,,,,,stimuli/m_black.jpg,stimuli/Outdoor activity & sport item.png,stimuli/Kitchen & utensil.png,stimuli/Hand labour tool & accessory.png,stimuli/Electronic device & accessory.png,,Outdoor activity & sport item,1,1,stimuli/objects/weight01.jpg,,,,,,,,,1,1,1.5011,0,29,29,29,1,1
,,,,,,,,,,,,,,24,,2021-12-21_11h31.16.617,MemLear_ses-01_part-01_label-phase1,2020.1.3,Win32,60,,,,,,,,,,,stimuli/m_black.jpg,stimuli/Kitchen & utensil.png,stimuli/Hand labour tool & accessory.png,stimuli/Outdoor activity & sport item.png,stimuli/Electronic device & accessory.png,,Outdoor activity & sport item,3,1,stimuli/objects/bikelock.jpg,,,,,,,,,3,1,0.9792,0,30,30,30,1,1
,,,,,,,,,,,,,,24,,2021-12-21_11h31.16.617,MemLear_ses-01_part-01_label-phase1,2020.1.3,Win32,60,,,,,,,,,,,stimuli/m_orange.jpg,stimuli/Outdoor activity & sport item.png,stimuli/Kitchen & utensil.png,stimuli/Hand labour tool & accessory.png,stimuli/Electronic device & accessory.png,,Outdoor activity & sport item,1,0,stimuli/objects/frisbee.jpg,,,,,,,,,3,0,3.5751,0,31,31,31,1,0
,,,,,,,,,,,,,,24,,2021-12-21_11h31.16.617,MemLear_ses-01_part-01_label-phase1,2020.1.3,Win32,60,,,,,,,,,,,stimuli/m_black.jpg,stimuli/Electronic device & accessory.png,stimuli/Hand labour tool & accessory.png,stimuli/Kitchen & utensil.png,stimuli/Outdoor activity & sport item.png,,Electronic device & accessory,1,0,stimuli/objects/monitor.jpg,,,,,,,,,4,0,1.1981,0,32,32,32,1,1
,,,,,,,,,,,,,,24,,2021-12-21_11h31.16.617,MemLear_ses-01_part-01_label-phase1,2020.1.3,Win32,60,,,,,,,,,,,stimuli/m_orange.jpg,stimuli/Hand labour tool & accessory.png,stimuli/Kitchen & utensil.png,stimuli/Outdoor activity & sport item.png,stimuli/Electronic device & accessory.png,,Hand labour tool & accessory,1,1,stimuli/objects/loppingshears.jpg,,,,,,,,,4,0,2.2089,0,33,33,33,1,0
,,,,,,,,,,,,,,24,,2021-12-21_11h31.16.617,MemLear_ses-01_part-01_label-phase1,2020.1.3,Win32,60,,,,,,,,,,,stimuli/m_black.jpg,stimuli/Outdoor activity & sport item.png,stimuli/Kitchen & utensil.png,stimuli/Hand labour tool & accessory.png,stimuli/Electronic device & accessory.png,,Outdoor activity & sport item,1,1,stimuli/objects/hockeygoalieglove.jpg,,,,,,,,,1,1,1.6779,0,34,34,34,1,1
,,,,,,,,,,,,,,24,,2021-12-21_11h31.16.617,MemLear_ses-01_part-01_label-phase1,2020.1.3,Win32,60,,,,,,,,,,,stimuli/m_black.jpg,stimuli/Hand labour tool & accessory.png,stimuli/Electronic device & accessory.png,stimuli/Outdoor activity & sport item.png,stimuli/Kitchen & utensil.png,,Outdoor activity & sport item,3,1,stimuli/objects/sportbag.jpg,,,,,,,,,3,1,1.6771,0,35,35,35,1,1
,,,,,,,,,,,,,,24,,2021-12-21_11h31.16.617,MemLear_ses-01_part-01_label-phase1,2020.1.3,Win32,60,,,,,,,,,,,stimuli/m_orange.jpg,stimuli/Hand labour tool & accessory.png,stimuli/Electronic device & accessory.png,stimuli/Kitchen & utensil.png,stimuli/Outdoor activity & sport item.png,,Outdoor activity & sport item,4,0,stimuli/objects/anchor.jpg,,,,,,,,,2,0,1.2016,0,36,36,36,1,0
,,,,,,,,,,,,,,24,,2021-12-21_11h31.16.617,MemLear_ses-01_part-01_label-phase1,2020.1.3,Win32,60,,,,,,,,,,,stimuli/m_orange.jpg,stimuli/Electronic device & accessory.png,stimuli/Kitchen & utensil.png,stimuli/Hand labour tool & accessory.png,stimuli/Outdoor activity & sport item.png,,Hand labour tool & accessory,3,1,stimuli/objects/solderingwire.jpg,,,,,,,,,3,1,2.6144,0,37,37,37,1,0
,,,,,,,,,,,,,,24,,2021-12-21_11h31.16.617,MemLear_ses-01_part-01_label-phase1,2020.1.3,Win32,60,,,,,,,,,,,stimuli/m_black.jpg,stimuli/Outdoor activity & sport item.png,stimuli/Kitchen & utensil.png,stimuli/Hand labour tool & accessory.png,stimuli/Electronic device & accessory.png,,Kitchen & utensil,2,0,stimuli/objects/blender.jpg,,,,,,,,,1,0,1.2441,0,38,38,38,1,1
,,,,,,,,,,,,,,24,,2021-12-21_11h31.16.617,MemLear_ses-01_part-01_label-phase1,2020.1.3,Win32,60,,,,,,,,,,,stimuli/m_orange.jpg,stimuli/Kitchen & utensil.png,stimuli/Electronic device & accessory.png,stimuli/Hand labour tool & accessory.png,stimuli/Outdoor activity & sport item.png,,Hand labour tool & accessory,3,1,stimuli/objects/gluetube.jpg,,,,,,,,,1,0,2.7513,0,39,39,39,1,0
,,,,,,,,,,,,,,24,,2021-12-21_11h31.16.617,MemLear_ses-01_part-01_label-phase1,2020.1.3,Win32,60,,,,,,,,,,,stimuli/m_black.jpg,stimuli/Electronic device & accessory.png,stimuli/Hand labour tool & accessory.png,stimuli/Kitchen & utensil.png,stimuli/Outdoor activity & sport item.png,,Electronic device & accessory,1,0,stimuli/objects/alarmsystem.jpg,,,,,,,,,4,0,1.0282,0,40,40,40,1,1
,,,,,,,,,,,,,,24,,2021-12-21_11h31.16.617,MemLear_ses-01_part-01_label-phase1,2020.1.3,Win32,60,,,,,,,,,,,stimuli/m_black.jpg,stimuli/Electronic device & accessory.png,stimuli/Outdoor activity & sport item.png,stimuli/Hand labour tool & accessory.png,stimuli/Kitchen & utensil.png,,Outdoor activity & sport item,2,1,stimuli/objects/punchingball.jpg,,,,,,,,,2,1,1.8595,0,41,41,41,1,1
,,,,,,,,,,,,,,24,,2021-12-21_11h31.16.617,MemLear_ses-01_part-01_label-phase1,2020.1.3,Win32,60,,,,,,,,,,,stimuli/m_orange.jpg,stimuli/Electronic device & accessory.png,stimuli/Outdoor activity & sport item.png,stimuli/Hand labour tool & accessory.png,stimuli/Kitchen & utensil.png,,Hand labour tool & accessory,3,1,stimuli/objects/tablesaw.jpg,,,,,,,,,3,1,2.6783,0,42,42,42,1,0
,,,,,,,,,,,,,,24,,2021-12-21_11h31.16.617,MemLear_ses-01_part-01_label-phase1,2020.1.3,Win32,60,,,,,,,,,,,stimuli/m_orange.jpg,stimuli/Outdoor activity & sport item.png,stimuli/Electronic device & accessory.png,stimuli/Hand labour tool & accessory.png,stimuli/Kitchen & utensil.png,,Kitchen & utensil,4,0,stimuli/objects/bowl02a.jpg,,,,,,,,,3,0,1.8926,0,43,43,43,1,0
,,,,,,,,,,,,,,24,,2021-12-21_11h31.16.617,MemLear_ses-01_part-01_label-phase1,2020.1.3,Win32,60,,,,,,,,,,,stimuli/m_orange.jpg,stimuli/Electronic device & accessory.png,stimuli/Hand labour tool & accessory.png,stimuli/Outdoor activity & sport item.png,stimuli/Kitchen & utensil.png,,Outdoor activity & sport item,3,0,stimuli/objects/boogieboard.jpg,,,,,,,,,2,0,1.2634,0,44,44,44,1,0
,,,,,,,,,,,,,,24,,2021-12-21_11h31.16.617,MemLear_ses-01_part-01_label-phase1,2020.1.3,Win32,60,,,,,,,,,,,stimuli/m_black.jpg,stimuli/Electronic device & accessory.png,stimuli/Hand labour tool & accessory.png,stimuli/Outdoor activity & sport item.png,stimuli/Kitchen & utensil.png,,Outdoor activity & sport item,3,1,stimuli/objects/exercisemachine.jpg,,,,,,,,,3,1,0.9221,0,45,45,45,1,1
,,,,,,,,,,,,,,24,,2021-12-21_11h31.16.617,MemLear_ses-01_part-01_label-phase1,2020.1.3,Win32,60,,,,,,,,,,,stimuli/m_black.jpg,stimuli/Hand labour tool & accessory.png,stimuli/Outdoor activity & sport item.png,stimuli/Electronic device & accessory.png,stimuli/Kitchen & utensil.png,,Outdoor activity & sport item,2,1,stimuli/objects/charcoalbarbecue.jpg,,,,,,,,,2,1,1.0604,0,46,46,46,1,1
,,,,,,,,,,,,,,24,,2021-12-21_11h31.16.617,MemLear_ses-01_part-01_label-phase1,2020.1.3,Win32,60,,,,,,,,,,,stimuli/m_orange.jpg,stimuli/Hand labour tool & accessory.png,stimuli/Outdoor activity & sport item.png,stimuli/Kitchen & utensil.png,stimuli/Electronic device & accessory.png,,Hand labour tool & accessory,1,1,stimuli/objects/pliers02b.jpg,,,,,,,,,4,0,2.546,0,47,47,47,1,0
,,,,,,,,,,,,,,24,,2021-12-21_11h31.16.617,MemLear_ses-01_part-01_label-phase1,2020.1.3,Win32,60,,,,,,,,,,,stimuli/m_black.jpg,stimuli/Kitchen & utensil.png,stimuli/Hand labour tool & accessory.png,stimuli/Electronic device & accessory.png,stimuli/Outdoor activity & sport item.png,,Hand labour tool & accessory,2,0,stimuli/objects/painttray.jpg,,,,,,,,,4,0,0.9919,0,48,48,48,1,1
,,,,,,,,,,,,,,24,,2021-12-21_11h31.16.617,MemLear_ses-01_part-01_label-phase1,2020.1.3,Win32,60,,,,,,,,,,,stimuli/m_orange.jpg,stimuli/Hand labour tool & accessory.png,stimuli/Electronic device & accessory.png,stimuli/Kitchen & utensil.png,stimuli/Outdoor activity & sport item.png,,Hand labour tool & accessory,1,1,stimuli/objects/measuringtape01.jpg,,,,,,,,,1,1,2.1093,0,49,49,49,1,0
,,,,,,,,,,,,,,24,,2021-12-21_11h31.16.617,MemLear_ses-01_part-01_label-phase1,2020.1.3,Win32,60,,,,,,,,,,,stimuli/m_orange.jpg,stimuli/Hand labour tool & accessory.png,stimuli/Kitchen & utensil.png,stimuli/Outdoor activity & sport item.png,stimuli/Electronic device & accessory.png,,Hand labour tool & accessory,1,1,stimuli/objects/hammer01.jpg,,,,,,,,,1,1,1.7263,0,50,50,50,1,0
,,,,,,,,,,,,,,24,,2021-12-21_11h31.16.617,MemLear_ses-01_part-01_label-phase1,2020.1.3,Win32,60,,,,,,,,,,,stimuli/m_orange.jpg,stimuli/Outdoor activity & sport item.png,stimuli/Hand labour tool & accessory.png,stimuli/Electronic device & accessory.png,stimuli/Kitchen & utensil.png,,Outdoor activity & sport item,1,0,stimuli/objects/bikehelmet.jpg,,,,,,,,,1,1,1.9803,0,51,51,51,1,0
,,,,,,,,,,,,,,24,,2021-12-21_11h31.16.617,MemLear_ses-01_part-01_label-phase1,2020.1.3,Win32,60,,,,,,,,,,,stimuli/m_orange.jpg,stimuli/Kitchen & utensil.png,stimuli/Hand labour tool & accessory.png,stimuli/Electronic device & accessory.png,stimuli/Outdoor activity & sport item.png,,Electronic device & accessory,3,0,stimuli/objects/carlighter02.jpg,,,,,,,,,4,0,1.5155,0,52,52,52,1,0
,,,,,,,,,,,,,,24,,2021-12-21_11h31.16.617,MemLear_ses-01_part-01_label-phase1,2020.1.3,Win32,60,,,,,,,,,,,stimuli/m_black.jpg,stimuli/Kitchen & utensil.png,stimuli/Electronic device & accessory.png,stimuli/Hand labour tool & accessory.png,stimuli/Outdoor activity & sport item.png,,Outdoor activity & sport item,4,1,stimuli/objects/basketballhoop01.jpg,,,,,,,,,4,1,1.8092,0,53,53,53,1,1
,,,,,,,,,,,,,,24,,2021-12-21_11h31.16.617,MemLear_ses-01_part-01_label-phase1,2020.1.3,Win32,60,,,,,,,,,,,stimuli/m_black.jpg,stimuli/Outdoor activity & sport item.png,stimuli/Hand labour tool & accessory.png,stimuli/Kitchen & utensil.png,stimuli/Electronic device & accessory.png,,Kitchen & utensil,3,0,stimuli/objects/fonduefork01.jpg,,,,,,,,,1,0,1.5966,0,54,54,54,1,1
,,,,,,,,,,,,,,24,,2021-12-21_11h31.16.617,MemLear_ses-01_part-01_label-phase1,2020.1.3,Win32,60,,,,,,,,,,,stimuli/m_black.jpg,stimuli/Kitchen & utensil.png,stimuli/Electronic device & accessory.png,stimuli/Outdoor activity & sport item.png,stimuli/Hand labour tool & accessory.png,,Outdoor activity & sport item,3,1,stimuli/objects/snowboard.jpg,,,,,,,,,3,1,1.1301,0,55,55,55,1,1
,,,,,,,,,,,,,,24,,2021-12-21_11h31.16.617,MemLear_ses-01_part-01_label-phase1,2020.1.3,Win32,60,,,,,,,,,,,stimuli/m_black.jpg,stimuli/Hand labour tool & accessory.png,stimuli/Electronic device & accessory.png,stimuli/Kitchen & utensil.png,stimuli/Outdoor activity & sport item.png,,Hand labour tool & accessory,1,0,stimuli/objects/pickaxe02.jpg,,,,,,,,,4,0,1.3509,0,56,56,56,1,1
,,,,,,,,,,,,,,24,,2021-12-21_11h31.16.617,MemLear_ses-01_part-01_label-phase1,2020.1.3,Win32,60,,,,,,,,,,,stimuli/m_black.jpg,stimuli/Electronic device & accessory.png,stimuli/Outdoor activity & sport item.png,stimuli/Kitchen & utensil.png,stimuli/Hand labour tool & accessory.png,,Electronic device & accessory,1,0,stimuli/objects/cellphone.jpg,,,,,,,,,2,0,1.5101,0,57,57,57,1,1
,,,,,,,,,,,,,,24,,2021-12-21_11h31.16.617,MemLear_ses-01_part-01_label-phase1,2020.1.3,Win32,60,,,,,,,,,,,stimuli/m_black.jpg,stimuli/Hand labour tool & accessory.png,stimuli/Outdoor activity & sport item.png,stimuli/Electronic device & accessory.png,stimuli/Kitchen & utensil.png,,Outdoor activity & sport item,2,1,stimuli/objects/bowlingball.jpg,,,,,,,,,2,1,0.9569,0,58,58,58,1,1
,,,,,,,,,,,,,,24,,2021-12-21_11h31.16.617,MemLear_ses-01_part-01_label-phase1,2020.1.3,Win32,60,,,,,,,,,,,stimuli/m_black.jpg,stimuli/Outdoor activity & sport item.png,stimuli/Hand labour tool & accessory.png,stimuli/Electronic device & accessory.png,stimuli/Kitchen & utensil.png,,Outdoor activity & sport item,1,1,stimuli/objects/podium.jpg,,,,,,,,,1,1,1.3282,0,59,59,59,1,1
,,,,,,,,,,,,,,24,,2021-12-21_11h31.16.617,MemLear_ses-01_part-01_label-phase1,2020.1.3,Win32,60,,,,,,,,,,,stimuli/m_orange.jpg,stimuli/Outdoor activity & sport item.png,stimuli/Electronic device & accessory.png,stimuli/Hand labour tool & accessory.png,stimuli/Kitchen & utensil.png,,Hand labour tool & accessory,3,1,stimuli/objects/cheeseknife01.jpg,,,,,,,,,1,0,1.4157,0,60,60,60,1,0
,,,,,,,,,,,,,,24,,2021-12-21_11h31.16.617,MemLear_ses-01_part-01_label-phase1,2020.1.3,Win32,60,,,,,,,,,,,stimuli/m_black.jpg,stimuli/Electronic device & accessory.png,stimuli/Kitchen & utensil.png,stimuli/Hand labour tool & accessory.png,stimuli/Outdoor activity & sport item.png,,Outdoor activity & sport item,4,1,stimuli/objects/magneticcompass.jpg,,,,,,,,,4,1,1.1564,0,61,61,61,1,1
,,,,,,,,,,,,,,24,,2021-12-21_11h31.16.617,MemLear_ses-01_part-01_label-phase1,2020.1.3,Win32,60,,,,,,,,,,,stimuli/m_black.jpg,stimuli/Electronic device & accessory.png,stimuli/Hand labour tool & accessory.png,stimuli/Outdoor activity & sport item.png,stimuli/Kitchen & utensil.png,,Outdoor activity & sport item,3,1,stimuli/objects/bikewheel.jpg,,,,,,,,,3,1,1.7795,0,62,62,62,1,1
,,,,,,,,,,,,,,24,,2021-12-21_11h31.16.617,MemLear_ses-01_part-01_label-phase1,2020.1.3,Win32,60,,,,,,,,,,,stimuli/m_black.jpg,stimuli/Kitchen & utensil.png,stimuli/Outdoor activity & sport item.png,stimuli/Hand labour tool & accessory.png,stimuli/Electronic device & accessory.png,,Outdoor activity & sport item,2,1,stimuli/objects/reflector.jpg,,,,,,,,,2,1,1.0244,0,63,63,63,1,1
,,,,,,,,,,,,,,24,,2021-12-21_11h31.16.617,MemLear_ses-01_part-01_label-phase1,2020.1.3,Win32,60,,,,,,,,,,,stimuli/m_black.jpg,stimuli/Hand labour tool & accessory.png,stimuli/Outdoor activity & sport item.png,stimuli/Kitchen & utensil.png,stimuli/Electronic device & accessory.png,,Electronic device & accessory,4,0,stimuli/objects/scanner.jpg,,,,,,,,,2,0,0.6261,0,64,64,64,1,1
,,,,,,,,,,,,,,24,,2021-12-21_11h31.16.617,MemLear_ses-01_part-01_label-phase1,2020.1.3,Win32,60,,,,,,,,,,,stimuli/m_black.jpg,stimuli/Kitchen & utensil.png,stimuli/Outdoor activity & sport item.png,stimuli/Electronic device & accessory.png,stimuli/Hand labour tool & accessory.png,,Outdoor activity & sport item,2,1,stimuli/objects/swimgoggles.jpg,,,,,,,,,2,1,0.8011,0,65,65,65,1,1
,,,,,,,,,,,,,,24,,2021-12-21_11h31.16.617,MemLear_ses-01_part-01_label-phase1,2020.1.3,Win32,60,,,,,,,,,,,stimuli/m_black.jpg,stimuli/Hand labour tool & accessory.png,stimuli/Kitchen & utensil.png,stimuli/Outdoor activity & sport item.png,stimuli/Electronic device & accessory.png,,Outdoor activity & sport item,3,1,stimuli/objects/tennisracket.jpg,,,,,,,,,3,1,1.7923,0,66,66,66,1,1
,,,,,,,,,,,,,,24,,2021-12-21_11h31.16.617,MemLear_ses-01_part-01_label-phase1,2020.1.3,Win32,60,,,,,,,,,,,stimuli/m_black.jpg,stimuli/Outdoor activity & sport item.png,stimuli/Electronic device & accessory.png,stimuli/Kitchen & utensil.png,stimuli/Hand labour tool & accessory.png,,Outdoor activity & sport item,1,1,stimuli/objects/toyhockeystick01.jpg,,,,,,,,,1,1,1.2664,0,67,67,67,1,1
,,,,,,,,,,,,,,24,,2021-12-21_11h31.16.617,MemLear_ses-01_part-01_label-phase1,2020.1.3,Win32,60,,,,,,,,,,,stimuli/m_orange.jpg,stimuli/Hand labour tool & accessory.png,stimuli/Electronic device & accessory.png,stimuli/Outdoor activity & sport item.png,stimuli/Kitchen & utensil.png,,Kitchen & utensil,4,0,stimuli/objects/styrofoamcup.jpg,,,,,,,,,3,0,1.5114,0,68,68,68,1,0
,,,,,,,,,,,,,,24,,2021-12-21_11h31.16.617,MemLear_ses-01_part-01_label-phase1,2020.1.3,Win32,60,,,,,,,,,,,stimuli/m_black.jpg,stimuli/Electronic device & accessory.png,stimuli/Kitchen & utensil.png,stimuli/Outdoor activity & sport item.png,stimuli/Hand labour tool & accessory.png,,Outdoor activity & sport item,3,1,stimuli/objects/volleyball.jpg,,,,,,,,,3,1,1.3603,0,69,69,69,1,1
,,,,,,,,,,,,,,24,,2021-12-21_11h31.16.617,MemLear_ses-01_part-01_label-phase1,2020.1.3,Win32,60,,,,,,,,,,,stimuli/m_black.jpg,stimuli/Electronic device & accessory.png,stimuli/Hand labour tool & accessory.png,stimuli/Outdoor activity & sport item.png,stimuli/Kitchen & utensil.png,,Kitchen & utensil,4,0,stimuli/objects/oven.jpg,,,,,,,,,3,0,1.6759,0,70,70,70,1,1
,,,,,,,,,,,,,,24,,2021-12-21_11h31.16.617,MemLear_ses-01_part-01_label-phase1,2020.1.3,Win32,60,,,,,,,,,,,stimuli/m_orange.jpg,stimuli/Outdoor activity & sport item.png,stimuli/Hand labour tool & accessory.png,stimuli/Kitchen & utensil.png,stimuli/Electronic device & accessory.png,,Outdoor activity & sport item,1,0,stimuli/objects/snowshoe.jpg,,,,,,,,,2,0,2.091,0,71,71,71,1,0
,,,,,,,,,,,,,,24,,2021-12-21_11h31.16.617,MemLear_ses-01_part-01_label-phase1,2020.1.3,Win32,60,,,,,,,,,,,stimuli/m_black.jpg,stimuli/Outdoor activity & sport item.png,stimuli/Electronic device & accessory.png,stimuli/Hand labour tool & accessory.png,stimuli/Kitchen & utensil.png,,Outdoor activity & sport item,1,1,stimuli/objects/skipole.jpg,,,,,,,,,1,1,1.1024,0,72,72,72,1,1
,,,,,,,,,,,,,,24,,2021-12-21_11h31.16.617,MemLear_ses-01_part-01_label-phase1,2020.1.3,Win32,60,,,,,,,,,,,stimuli/m_orange.jpg,stimuli/Electronic device & accessory.png,stimuli/Kitchen & utensil.png,stimuli/Hand labour tool & accessory.png,stimuli/Outdoor activity & sport item.png,,Hand labour tool & accessory,3,1,stimuli/objects/puttyknife.jpg,,,,,,,,,4,0,1.3483,0,73,73,73,1,0
,,,,,,,,,,,,,,24,,2021-12-21_11h31.16.617,MemLear_ses-01_part-01_label-phase1,2020.1.3,Win32,60,,,,,,,,,,,stimuli/m_orange.jpg,stimuli/Outdoor activity & sport item.png,stimuli/Kitchen & utensil.png,stimuli/Hand labour tool & accessory.png,stimuli/Electronic device & accessory.png,,Hand labour tool & accessory,3,1,stimuli/objects/bungeecord02.jpg,,,,,,,,,2,0,1.0352,0,74,74,74,1,0
,,,,,,,,,,,,,,24,,2021-12-21_11h31.16.617,MemLear_ses-01_part-01_label-phase1,2020.1.3,Win32,60,,,,,,,,,,,stimuli/m_orange.jpg,stimuli/Electronic device & accessory.png,stimuli/Kitchen & utensil.png,stimuli/Hand labour tool & accessory.png,stimuli/Outdoor activity & sport item.png,,Hand labour tool & accessory,3,1,stimuli/objects/jackhammer.jpg,,,,,,,,,1,0,0.6855,0,75,75,75,1,0
,,,,,,,,,,,,,,24,,2021-12-21_11h31.16.617,MemLear_ses-01_part-01_label-phase1,2020.1.3,Win32,60,,,,,,,,,,,stimuli/m_black.jpg,stimuli/Kitchen & utensil.png,stimuli/Outdoor activity & sport item.png,stimuli/Hand labour tool & accessory.png,stimuli/Electronic device & accessory.png,,Outdoor activity & sport item,2,1,stimuli/objects/kneepad01c.jpg,,,,,,,,,2,1,1.1344,0,76,76,76,1,1
,,,,,,,,,,,,,,24,,2021-12-21_11h31.16.617,MemLear_ses-01_part-01_label-phase1,2020.1.3,Win32,60,,,,,,,,,,,stimuli/m_black.jpg,stimuli/Hand labour tool & accessory.png,stimuli/Kitchen & utensil.png,stimuli/Outdoor activity & sport item.png,stimuli/Electronic device & accessory.png,,Outdoor activity & sport item,3,1,stimuli/objects/golfbag.jpg,,,,,,,,,3,1,1.4477,0,77,77,77,1,1
,,,,,,,,,,,,,,24,,2021-12-21_11h31.16.617,MemLear_ses-01_part-01_label-phase1,2020.1.3,Win32,60,,,,,,,,,,,stimuli/m_black.jpg,stimuli/Outdoor activity & sport item.png,stimuli/Electronic device & accessory.png,stimuli/Hand labour tool & accessory.png,stimuli/Kitchen & utensil.png,,Outdoor activity & sport item,1,1,stimuli/objects/birdie.jpg,,,,,,,,,1,1,0.9635,0,78,78,78,1,1
,,,,,,,,,,,,,,24,,2021-12-21_11h31.16.617,MemLear_ses-01_part-01_label-phase1,2020.1.3,Win32,60,,,,,,,,,,,stimuli/m_orange.jpg,stimuli/Hand labour tool & accessory.png,stimuli/Outdoor activity & sport item.png,stimuli/Kitchen & utensil.png,stimuli/Electronic device & accessory.png,,Electronic device & accessory,4,0,stimuli/objects/chandelier.jpg,,,,,,,,,3,0,2.0971,0,79,79,79,1,0
,,,,,,,,,,,,,,24,,2021-12-21_11h31.16.617,MemLear_ses-01_part-01_label-phase1,2020.1.3,Win32,60,,,,,,,,,,,stimuli/m_orange.jpg,stimuli/Hand labour tool & accessory.png,stimuli/Outdoor activity & sport item.png,stimuli/Electronic device & accessory.png,stimuli/Kitchen & utensil.png,,Hand labour tool & accessory,1,1,stimuli/objects/drillbit03a.jpg,,,,,,,,,4,0,1.3126,0,80,80,80,1,0
,,,,,,,,,,,,,,24,,2021-12-21_11h31.16.617,MemLear_ses-01_part-01_label-phase1,2020.1.3,Win32,60,,,,,,,,,,,stimuli/m_black.jpg,stimuli/Hand labour tool & accessory.png,stimuli/Electronic device & accessory.png,stimuli/Outdoor activity & sport item.png,stimuli/Kitchen & utensil.png,,Hand labour tool & accessory,1,0,stimuli/objects/solderingiron.jpg,,,,,,,,,3,0,2.2468,0,81,81,81,1,1
,,,,,,,,,,,,,,24,,2021-12-21_11h31.16.617,MemLear_ses-01_part-01_label-phase1,2020.1.3,Win32,60,,,,,,,,,,,stimuli/m_black.jpg,stimuli/Hand labour tool & accessory.png,stimuli/Electronic device & accessory.png,stimuli/Kitchen & utensil.png,stimuli/Outdoor activity & sport item.png,,Outdoor activity & sport item,4,1,stimuli/objects/lifesaver.jpg,,,,,,,,,4,1,1.3119,0,82,82,82,1,1
,,,,,,,,,,,,,,24,,2021-12-21_11h31.16.617,MemLear_ses-01_part-01_label-phase1,2020.1.3,Win32,60,,,,,,,,,,,stimuli/m_black.jpg,stimuli/Hand labour tool & accessory.png,stimuli/Kitchen & utensil.png,stimuli/Electronic device & accessory.png,stimuli/Outdoor activity & sport item.png,,Outdoor activity & sport item,4,1,stimuli/objects/propanetank01.jpg,,,,,,,,,4,1,0.9919,0,83,83,83,1,1
,,,,,,,,,,,,,,24,,2021-12-21_11h31.16.617,MemLear_ses-01_part-01_label-phase1,2020.1.3,Win32,60,,,,,,,,,,,stimuli/m_orange.jpg,stimuli/Hand labour tool & accessory.png,stimuli/Kitchen & utensil.png,stimuli/Outdoor activity & sport item.png,stimuli/Electronic device & accessory.png,,Hand labour tool & accessory,1,1,stimuli/objects/cuttingpliers02.jpg,,,,,,,,,1,1,1.0596,0,84,84,84,1,0
,,,,,,,,,,,,,,24,,2021-12-21_11h31.16.617,MemLear_ses-01_part-01_label-phase1,2020.1.3,Win32,60,,,,,,,,,,,stimuli/m_black.jpg,stimuli/Kitchen & utensil.png,stimuli/Outdoor activity & sport item.png,stimuli/Electronic device & accessory.png,stimuli/Hand labour tool & accessory.png,,Outdoor activity & sport item,2,1,stimuli/objects/skigoggles01.jpg,,,,,,,,,2,1,0.933,0,85,85,85,1,1
,,,,,,,,,,,,,,24,,2021-12-21_11h31.16.617,MemLear_ses-01_part-01_label-phase1,2020.1.3,Win32,60,,,,,,,,,,,stimuli/m_orange.jpg,stimuli/Hand labour tool & accessory.png,stimuli/Kitchen & utensil.png,stimuli/Electronic device & accessory.png,stimuli/Outdoor activity & sport item.png,,Electronic device & accessory,3,0,stimuli/objects/securitycamera.jpg,,,,,,,,,4,0,1.2259,0,86,86,86,1,0
,,,,,,,,,,,,,,24,,2021-12-21_11h31.16.617,MemLear_ses-01_part-01_label-phase1,2020.1.3,Win32,60,,,,,,,,,,,stimuli/m_orange.jpg,stimuli/Electronic device & accessory.png,stimuli/Hand labour tool & accessory.png,stimuli/Outdoor activity & sport item.png,stimuli/Kitchen & utensil.png,,Hand labour tool & accessory,2,1,stimuli/objects/pylon01.jpg,,,,,,,,,4,0,1.216,0,87,87,87,1,0
,,,,,,,,,,,,,,24,,2021-12-21_11h31.16.617,MemLear_ses-01_part-01_label-phase1,2020.1.3,Win32,60,,,,,,,,,,,stimuli/m_orange.jpg,stimuli/Hand labour tool & accessory.png,stimuli/Electronic device & accessory.png,stimuli/Kitchen & utensil.png,stimuli/Outdoor activity & sport item.png,,Kitchen & utensil,3,0,stimuli/objects/pot01.jpg,,,,,,,,,3,1,1.2189,0,88,88,88,1,0
,,,,,,,,,,,,,,24,,2021-12-21_11h31.16.617,MemLear_ses-01_part-01_label-phase1,2020.1.3,Win32,60,,,,,,,,,,,stimuli/m_black.jpg,stimuli/Electronic device & accessory.png,stimuli/Kitchen & utensil.png,stimuli/Hand labour tool & accessory.png,stimuli/Outdoor activity & sport item.png,,Outdoor activity & sport item,4,1,stimuli/objects/surfboard.jpg,,,,,,,,,4,1,1.2829,0,89,89,89,1,1
,,,,,,,,,,,,,,24,,2021-12-21_11h31.16.617,MemLear_ses-01_part-01_label-phase1,2020.1.3,Win32,60,,,,,,,,,,,stimuli/m_black.jpg,stimuli/Electronic device & accessory.png,stimuli/Outdoor activity & sport item.png,stimuli/Hand labour tool & accessory.png,stimuli/Kitchen & utensil.png,,Outdoor activity & sport item,2,1,stimuli/objects/cooler01.jpg,,,,,,,,,2,1,1.7091,0,90,90,90,1,1
,,,,,,,,,,,,,,24,,2021-12-21_11h31.16.617,MemLear_ses-01_part-01_label-phase1,2020.1.3,Win32,60,,,,,,,,,,,stimuli/m_orange.jpg,stimuli/Outdoor activity & sport item.png,stimuli/Hand labour tool & accessory.png,stimuli/Kitchen & utensil.png,stimuli/Electronic device & accessory.png,,Hand labour tool & accessory,2,1,stimuli/objects/adjustablewrench01b.jpg,,,,,,,,,3,0,0.9363,0,91,91,91,1,0
,,,,,,,,,,,,,,24,,2021-12-21_11h31.16.617,MemLear_ses-01_part-01_label-phase1,2020.1.3,Win32,60,,,,,,,,,,,stimuli/m_orange.jpg,stimuli/Outdoor activity & sport item.png,stimuli/Kitchen & utensil.png,stimuli/Electronic device & accessory.png,stimuli/Hand labour tool & accessory.png,,Hand labour tool & accessory,4,1,stimuli/objects/cclamp.jpg,,,,,,,,,3,0,3.1331,0,92,92,92,1,0
,,,,,,,,,,,,,,24,,2021-12-21_11h31.16.617,MemLear_ses-01_part-01_label-phase1,2020.1.3,Win32,60,,,,,,,,,,,stimuli/m_orange.jpg,stimuli/Electronic device & accessory.png,stimuli/Hand labour tool & accessory.png,stimuli/Kitchen & utensil.png,stimuli/Outdoor activity & sport item.png,,Electronic device & accessory,1,0,stimuli/objects/videocamera01a.jpg,,,,,,,,,1,1,1.4375,0,93,93,93,1,0
,,,,,,,,,,,,,,24,,2021-12-21_11h31.16.617,MemLear_ses-01_part-01_label-phase1,2020.1.3,Win32,60,,,,,,,,,,,stimuli/m_orange.jpg,stimuli/Electronic device & accessory.png,stimuli/Outdoor activity & sport item.png,stimuli/Kitchen & utensil.png,stimuli/Hand labour tool & accessory.png,,Electronic device & accessory,1,0,stimuli/objects/walkman.jpg,,,,,,,,,4,0,2.1728,0,94,94,94,1,0
,,,,,,,,,,,,,,24,,2021-12-21_11h31.16.617,MemLear_ses-01_part-01_label-phase1,2020.1.3,Win32,60,,,,,,,,,,,stimuli/m_orange.jpg,stimuli/Kitchen & utensil.png,stimuli/Electronic device & accessory.png,stimuli/Outdoor activity & sport item.png,stimuli/Hand labour tool & accessory.png,,Hand labour tool & accessory,4,1,stimuli/objects/wheel01.jpg,,,,,,,,,4,1,0.8267,0,95,95,95,1,0
,,,,,,,,,,,,,,24,,2021-12-21_11h31.16.617,MemLear_ses-01_part-01_label-phase1,2020.1.3,Win32,60,,,,,,,,,,,stimuli/m_black.jpg,stimuli/Outdoor activity & sport item.png,stimuli/Hand labour tool & accessory.png,stimuli/Electronic device & accessory.png,stimuli/Kitchen & utensil.png,,Kitchen & utensil,4,0,stimuli/objects/cleaver01.jpg,,,,,,,,,1,0,1.1177,0,96,96,96,1,1
,,,,,,,,,,,,,,24,,2021-12-21_11h31.16.617,MemLear_ses-01_part-01_label-phase1,2020.1.3,Win32,60,,,,,,,,,,,stimuli/m_orange.jpg,stimuli/Electronic device & accessory.png,stimuli/Hand labour tool & accessory.png,stimuli/Kitchen & utensil.png,stimuli/Outdoor activity & sport item.png,,Electronic device & accessory,1,0,stimuli/objects/spotlight.jpg,,,,,,,,,2,0,1.2191,0,97,97,97,1,0
,,,,,,,,,,,,,,24,,2021-12-21_11h31.16.617,MemLear_ses-01_part-01_label-phase1,2020.1.3,Win32,60,,,,,,,,,,,stimuli/m_black.jpg,stimuli/Kitchen & utensil.png,stimuli/Electronic device & accessory.png,stimuli/Hand labour tool & accessory.png,stimuli/Outdoor activity & sport item.png,,Outdoor activity & sport item,4,1,stimuli/objects/badmintonracket.jpg,,,,,,,,,4,1,1.4057,0,98,98,98,1,1
,,,,,,,,,,,,,,24,,2021-12-21_11h31.16.617,MemLear_ses-01_part-01_label-phase1,2020.1.3,Win32,60,,,,,,,,,,,stimuli/m_orange.jpg,stimuli/Kitchen & utensil.png,stimuli/Electronic device & accessory.png,stimuli/Outdoor activity & sport item.png,stimuli/Hand labour tool & accessory.png,,Hand labour tool & accessory,4,1,stimuli/objects/bucket02.jpg,,,,,,,,,3,0,1.8597,0,99,99,99,1,0
,,,,,,,,,,,,,,24,,2021-12-21_11h31.16.617,MemLear_ses-01_part-01_label-phase1,2020.1.3,Win32,60,,,,,,,,,,,stimuli/m_orange.jpg,stimuli/Kitchen & utensil.png,stimuli/Outdoor activity & sport item.png,stimuli/Hand labour tool & accessory.png,stimuli/Electronic device & accessory.png,,Hand labour tool & accessory,3,1,stimuli/objects/stepladder.jpg,,,,,,,,,1,0,1.0652,0,100,100,100,1,0
,,,,,,,,,,,,,,24,,2021-12-21_11h31.16.617,MemLear_ses-01_part-01_label-phase1,2020.1.3,Win32,60,,,,,,,,,,,stimuli/m_black.jpg,stimuli/Outdoor activity & sport item.png,stimuli/Kitchen & utensil.png,stimuli/Electronic device & accessory.png,stimuli/Hand labour tool & accessory.png,,Kitchen & utensil,2,0,stimuli/objects/kitchenscale01a.jpg,,,,,,,,,1,0,0.968,0,101,101,101,1,1
,,,,,,,,,,,,,,24,,2021-12-21_11h31.16.617,MemLear_ses-01_part-01_label-phase1,2020.1.3,Win32,60,,,,,,,,,,,stimuli/m_orange.jpg,stimuli/Hand labour tool & accessory.png,stimuli/Outdoor activity & sport item.png,stimuli/Electronic device & accessory.png,stimuli/Kitchen & utensil.png,,Hand labour tool & accessory,1,1,stimuli/objects/metalscissors.jpg,,,,,,,,,4,0,1.312,0,102,102,102,1,0
,,,,,,,,,,,,,,24,,2021-12-21_11h31.16.617,MemLear_ses-01_part-01_label-phase1,2020.1.3,Win32,60,,,,,,,,,,,stimuli/m_black.jpg,stimuli/Hand labour tool & accessory.png,stimuli/Kitchen & utensil.png,stimuli/Electronic device & accessory.png,stimuli/Outdoor activity & sport item.png,,Electronic device & accessory,3,0,stimuli/objects/coffeemachine.jpg,,,,,,,,,4,0,1.1405,0,103,103,103,1,1
,,,,,,,,,,,,,,24,,2021-12-21_11h31.16.617,MemLear_ses-01_part-01_label-phase1,2020.1.3,Win32,60,,,,,,,,,,,stimuli/m_orange.jpg,stimuli/Electronic device & accessory.png,stimuli/Hand labour tool & accessory.png,stimuli/Outdoor activity & sport item.png,stimuli/Kitchen & utensil.png,,Hand labour tool & accessory,2,1,stimuli/objects/mitresaw.jpg,,,,,,,,,4,0,2.3217,0,104,104,104,1,0
,,,,,,,,,,,,,,24,,2021-12-21_11h31.16.617,MemLear_ses-01_part-01_label-phase1,2020.1.3,Win32,60,,,,,,,,,,,stimuli/m_orange.jpg,stimuli/Hand labour tool & accessory.png,stimuli/Electronic device & accessory.png,stimuli/Outdoor activity & sport item.png,stimuli/Kitchen & utensil.png,,Kitchen & utensil,4,0,stimuli/objects/grater01a.jpg,,,,,,,,,4,1,1.0943,0,105,105,105,1,0
,,,,,,,,,,,,,,24,,2021-12-21_11h31.16.617,MemLear_ses-01_part-01_label-phase1,2020.1.3,Win32,60,,,,,,,,,,,stimuli/m_orange.jpg,stimuli/Kitchen & utensil.png,stimuli/Electronic device & accessory.png,stimuli/Hand labour tool & accessory.png,stimuli/Outdoor activity & sport item.png,,Hand labour tool & accessory,3,1,stimuli/objects/leafblower01.jpg,,,,,,,,,4,0,0.4184,0,106,106,106,1,0
,,,,,,,,,,,,,,24,,2021-12-21_11h31.16.617,MemLear_ses-01_part-01_label-phase1,2020.1.3,Win32,60,,,,,,,,,,,stimuli/m_black.jpg,stimuli/Hand labour tool & accessory.png,stimuli/Kitchen & utensil.png,stimuli/Outdoor activity & sport item.png,stimuli/Electronic device & accessory.png,,Outdoor activity & sport item,3,1,stimuli/objects/footballhelmet.jpg,,,,,,,,,3,1,1.319,0,107,107,107,1,1
,,,,,,,,,,,,,,24,,2021-12-21_11h31.16.617,MemLear_ses-01_part-01_label-phase1,2020.1.3,Win32,60,,,,,,,,,,,stimuli/m_black.jpg,stimuli/Hand labour tool & accessory.png,stimuli/Outdoor activity & sport item.png,stimuli/Electronic device & accessory.png,stimuli/Kitchen & utensil.png,,Outdoor activity & sport item,2,1,stimuli/objects/baseball01a.jpg,,,,,,,,,2,1,2.1343,0,108,108,108,1,1
,,,,,,,,,,,,,,24,,2021-12-21_11h31.16.617,MemLear_ses-01_part-01_label-phase1,2020.1.3,Win32,60,,,,,,,,,,,stimuli/m_black.jpg,stimuli/Kitchen & utensil.png,stimuli/Electronic device & accessory.png,stimuli/Outdoor activity & sport item.png,stimuli/Hand labour tool & accessory.png,,Outdoor activity & sport item,3,1,stimuli/objects/bicycle.jpg,,,,,,,,,3,1,1.2338,0,109,109,109,1,1
,,,,,,,,,,,,,,24,,2021-12-21_11h31.16.617,MemLear_ses-01_part-01_label-phase1,2020.1.3,Win32,60,,,,,,,,,,,stimuli/m_black.jpg,stimuli/Hand labour tool & accessory.png,stimuli/Electronic device & accessory.png,stimuli/Outdoor activity & sport item.png,stimuli/Kitchen & utensil.png,,Hand labour tool & accessory,1,0,stimuli/objects/mallet01b.jpg,,,,,,,,,3,0,1.9353,0,110,110,110,1,1
,,,,,,,,,,,,,,24,,2021-12-21_11h31.16.617,MemLear_ses-01_part-01_label-phase1,2020.1.3,Win32,60,,,,,,,,,,,stimuli/m_black.jpg,stimuli/Kitchen & utensil.png,stimuli/Electronic device & accessory.png,stimuli/Hand labour tool & accessory.png,stimuli/Outdoor activity & sport item.png,,Outdoor activity & sport item,4,1,stimuli/objects/exercisebike.jpg,,,,,,,,,4,1,1.0224,0,111,111,111,1,1
,,,,,,,,,,,,,,24,,2021-12-21_11h31.16.617,MemLear_ses-01_part-01_label-phase1,2020.1.3,Win32,60,,,,,,,,,,,stimuli/m_black.jpg,stimuli/Outdoor activity & sport item.png,stimuli/Electronic device & accessory.png,stimuli/Kitchen & utensil.png,stimuli/Hand labour tool & accessory.png,,Outdoor activity & sport item,1,1,stimuli/objects/backpack01a.jpg,,,,,,,,,1,1,1.2511,0,112,112,112,1,1
,,,,,,,,,,,,,,24,,2021-12-21_11h31.16.617,MemLear_ses-01_part-01_label-phase1,2020.1.3,Win32,60,,,,,,,,,,,stimuli/m_orange.jpg,stimuli/Kitchen & utensil.png,stimuli/Hand labour tool & accessory.png,stimuli/Outdoor activity & sport item.png,stimuli/Electronic device & accessory.png,,Hand labour tool & accessory,2,1,stimuli/objects/nailgun.jpg,,,,,,,,,2,1,1.151,0,113,113,113,1,0
,,,,,,,,,,,,,,24,,2021-12-21_11h31.16.617,MemLear_ses-01_part-01_label-phase1,2020.1.3,Win32,60,,,,,,,,,,,stimuli/m_orange.jpg,stimuli/Kitchen & utensil.png,stimuli/Outdoor activity & sport item.png,stimuli/Electronic device & accessory.png,stimuli/Hand labour tool & accessory.png,,Kitchen & utensil,1,0,stimuli/objects/icebucket.jpg,,,,,,,,,4,0,1.0652,0,114,114,114,1,0
,,,,,,,,,,,,,,24,,2021-12-21_11h31.16.617,MemLear_ses-01_part-01_label-phase1,2020.1.3,Win32,60,,,,,,,,,,,stimuli/m_orange.jpg,stimuli/Outdoor activity & sport item.png,stimuli/Kitchen & utensil.png,stimuli/Electronic device & accessory.png,stimuli/Hand labour tool & accessory.png,,Outdoor activity & sport item,1,0,stimuli/objects/handgripper.jpg,,,,,,,,,2,0,0.5859,0,115,115,115,1,0
,,,,,,,,,,,,,,24,,2021-12-21_11h31.16.617,MemLear_ses-01_part-01_label-phase1,2020.1.3,Win32,60,,,,,,,,,,,stimuli/m_orange.jpg,stimuli/Outdoor activity & sport item.png,stimuli/Electronic device & accessory.png,stimuli/Hand labour tool & accessory.png,stimuli/Kitchen & utensil.png,,Hand labour tool & accessory,3,1,stimuli/objects/gastank.jpg,,,,,,,,,4,0,1.028,0,116,116,116,1,0
,,,,,,,,,,,,,,24,,2021-12-21_11h31.16.617,MemLear_ses-01_part-01_label-phase1,2020.1.3,Win32,60,,,,,,,,,,,stimuli/m_orange.jpg,stimuli/Kitchen & utensil.png,stimuli/Hand labour tool & accessory.png,stimuli/Electronic device & accessory.png,stimuli/Outdoor activity & sport item.png,,Kitchen & utensil,1,0,stimuli/objects/teapot.jpg,,,,,,,,,2,0,1.1345,0,117,117,117,1,0
,,,,,,,,,,,,,,24,,2021-12-21_11h31.16.617,MemLear_ses-01_part-01_label-phase1,2020.1.3,Win32,60,,,,,,,,,,,stimuli/m_orange.jpg,stimuli/Hand labour tool & accessory.png,stimuli/Kitchen & utensil.png,stimuli/Electronic device & accessory.png,stimuli/Outdoor activity & sport item.png,,Hand labour tool & accessory,1,1,stimuli/objects/hoe.jpg,,,,,,,,,3,0,1.145,0,118,118,118,1,0
,,,,,,,,,,,,,,24,,2021-12-21_11h31.16.617,MemLear_ses-01_part-01_label-phase1,2020.1.3,Win32,60,,,,,,,,,,,stimuli/m_orange.jpg,stimuli/Outdoor activity & sport item.png,stimuli/Hand labour tool & accessory.png,stimuli/Electronic device & accessory.png,stimuli/Kitchen & utensil.png,,Hand labour tool & accessory,2,1,stimuli/objects/squeegee01b.jpg,,,,,,,,,2,1,0.4673,0,119,119,119,1,0
