illustration_loop.thisRepN,illustration_loop.thisTrialN,illustration_loop.thisN,illustration_loop.thisIndex,illustration_loop.ran,images,key,participant,Expra Code,date,expName,psychopyVersion,OS,frameRate,key_resp_4.keys,key_resp_4.corr,key_resp_4.rt,n_back_loop.thisRepN,n_back_loop.thisTrialN,n_back_loop.thisN,n_back_loop.thisIndex,n_back_loop.ran,word,CORRanswer,trialtype,hit_NoHit
0,0,0,0,1,slide 1.jpg,'space’,2,473878,2021-12-23_12h57.45.785,MemLear_ses-01_part-02_label-nBack,2020.1.3,Win32,60,,,,,,,,,,,,
0,1,1,1,1,slide 2.jpg,'l’,2,473878,2021-12-23_12h57.45.785,MemLear_ses-01_part-02_label-nBack,2020.1.3,Win32,60,,,,,,,,,,,,
0,2,2,2,1,slide 3.jpg,'l’,2,473878,2021-12-23_12h57.45.785,MemLear_ses-01_part-02_label-nBack,2020.1.3,Win32,60,,,,,,,,,,,,
0,3,3,3,1,slide 4.jpg,'l’,2,473878,2021-12-23_12h57.45.785,MemLear_ses-01_part-02_label-nBack,2020.1.3,Win32,60,,,,,,,,,,,,
0,4,4,4,1,slide 5.jpg,'d’,2,473878,2021-12-23_12h57.45.785,MemLear_ses-01_part-02_label-nBack,2020.1.3,Win32,60,,,,,,,,,,,,
0,5,5,5,1,slide 6.jpg,'l’,2,473878,2021-12-23_12h57.45.785,MemLear_ses-01_part-02_label-nBack,2020.1.3,Win32,60,,,,,,,,,,,,
,,,,,,,2,473878,2021-12-23_12h57.45.785,MemLear_ses-01_part-02_label-nBack,2020.1.3,Win32,60,"[""l""]",1,[3.7247999999970176],0,0,0,0,1,bless,l,0,NoHit
,,,,,,,2,473878,2021-12-23_12h57.45.785,MemLear_ses-01_part-02_label-nBack,2020.1.3,Win32,60,"[""l""]",1,[1.5009999999999906],0,1,1,1,1,nature,l,0,NoHit
,,,,,,,2,473878,2021-12-23_12h57.45.785,MemLear_ses-01_part-02_label-nBack,2020.1.3,Win32,60,"[""l""]",1,[1.4007000000029706],0,2,2,2,1,carefree,l,0,NoHit
,,,,,,,2,473878,2021-12-23_12h57.45.785,MemLear_ses-01_part-02_label-nBack,2020.1.3,Win32,60,"[""d""]",1,[2.2519999999999953],0,3,3,3,1,nature,d,1,Hit
,,,,,,,2,473878,2021-12-23_12h57.45.785,MemLear_ses-01_part-02_label-nBack,2020.1.3,Win32,60,"[""l""]",1,[1.5648999999985165],0,4,4,4,1,easygoing,l,0,NoHit
,,,,,,,2,473878,2021-12-23_12h57.45.785,MemLear_ses-01_part-02_label-nBack,2020.1.3,Win32,60,"[""l""]",1,[1.1673999999985085],0,5,5,5,1,pillow,l,0,NoHit
,,,,,,,2,473878,2021-12-23_12h57.45.785,MemLear_ses-01_part-02_label-nBack,2020.1.3,Win32,60,"[""l""]",0,[6.60219999999552],0,6,6,6,1,easygoing,d,1,Hit
,,,,,,,2,473878,2021-12-23_12h57.45.785,MemLear_ses-01_part-02_label-nBack,2020.1.3,Win32,60,"[""l""]",1,[1.017300000004468],0,7,7,7,1,gentle,l,0,NoHit
,,,,,,,2,473878,2021-12-23_12h57.45.785,MemLear_ses-01_part-02_label-nBack,2020.1.3,Win32,60,"[""l""]",1,[1.1167999999970277],0,8,8,8,1,square,l,0,NoHit
,,,,,,,2,473878,2021-12-23_12h57.45.785,MemLear_ses-01_part-02_label-nBack,2020.1.3,Win32,60,"[""l""]",0,[3.7347999999970227],0,9,9,9,1,gentle,d,1,Hit
,,,,,,,2,473878,2021-12-23_12h57.45.785,MemLear_ses-01_part-02_label-nBack,2020.1.3,Win32,60,"[""d""]",0,[2.051000000000016],0,10,10,10,1,carefree,l,0,NoHit
,,,,,,,2,473878,2021-12-23_12h57.45.785,MemLear_ses-01_part-02_label-nBack,2020.1.3,Win32,60,"[""l""]",1,[1.5005000000000166],0,11,11,11,1,tool,l,0,NoHit
,,,,,,,2,473878,2021-12-23_12h57.45.785,MemLear_ses-01_part-02_label-nBack,2020.1.3,Win32,60,"[""l""]",1,[0.8502000000029852],0,12,12,12,1,bored,l,0,NoHit
,,,,,,,2,473878,2021-12-23_12h57.45.785,MemLear_ses-01_part-02_label-nBack,2020.1.3,Win32,60,"[""l""]",0,[1.3677000000029977],0,13,13,13,1,tool,d,1,Hit
,,,,,,,2,473878,2021-12-23_12h57.45.785,MemLear_ses-01_part-02_label-nBack,2020.1.3,Win32,60,"[""l""]",1,[1.1007000000029734],0,14,14,14,1,home,l,0,NoHit
,,,,,,,2,473878,2021-12-23_12h57.45.785,MemLear_ses-01_part-02_label-nBack,2020.1.3,Win32,60,"[""l""]",1,[2.2007000000029677],0,15,15,15,1,immature,l,0,NoHit
,,,,,,,2,473878,2021-12-23_12h57.45.785,MemLear_ses-01_part-02_label-nBack,2020.1.3,Win32,60,"[""d""]",1,[2.5180000000000007],0,16,16,16,1,home,d,1,Hit
,,,,,,,2,473878,2021-12-23_12h57.45.785,MemLear_ses-01_part-02_label-nBack,2020.1.3,Win32,60,"[""l""]",1,[1.6389000000059468],0,17,17,17,1,fault,l,0,NoHit
,,,,,,,2,473878,2021-12-23_12h57.45.785,MemLear_ses-01_part-02_label-nBack,2020.1.3,Win32,60,"[""l""]",1,[1.3671000000014715],0,18,18,18,1,pillow,l,0,NoHit
,,,,,,,2,473878,2021-12-23_12h57.45.785,MemLear_ses-01_part-02_label-nBack,2020.1.3,Win32,60,"[""l""]",1,[1.086500000000001],0,19,19,19,1,violin,l,0,NoHit
,,,,,,,2,473878,2021-12-23_12h57.45.785,MemLear_ses-01_part-02_label-nBack,2020.1.3,Win32,60,"[""l""]",0,[1.2836000000014849],0,20,20,20,1,violin,d,1,Hit
,,,,,,,2,473878,2021-12-23_12h57.45.785,MemLear_ses-01_part-02_label-nBack,2020.1.3,Win32,60,"[""l""]",1,[1.2839999999999918],0,21,21,21,1,tense,l,0,NoHit
,,,,,,,2,473878,2021-12-23_12h57.45.785,MemLear_ses-01_part-02_label-nBack,2020.1.3,Win32,60,"[""l""]",1,[1.0676999999955115],0,22,22,22,1,confident,l,0,NoHit
,,,,,,,2,473878,2021-12-23_12h57.45.785,MemLear_ses-01_part-02_label-nBack,2020.1.3,Win32,60,"[""l""]",1,[0.9003000000044779],0,23,23,23,1,bomb,l,0,NoHit
,,,,,,,2,473878,2021-12-23_12h57.45.785,MemLear_ses-01_part-02_label-nBack,2020.1.3,Win32,60,"[""d""]",1,[1.6673000000044453],0,24,24,24,1,confident,d,1,Hit
,,,,,,,2,473878,2021-12-23_12h57.45.785,MemLear_ses-01_part-02_label-nBack,2020.1.3,Win32,60,"[""l""]",1,[0.9339999999999975],0,25,25,25,1,butterfly,l,0,NoHit
,,,,,,,2,473878,2021-12-23_12h57.45.785,MemLear_ses-01_part-02_label-nBack,2020.1.3,Win32,60,"[""l""]",1,[0.8839999999999861],0,26,26,26,1,cheer,l,0,NoHit
,,,,,,,2,473878,2021-12-23_12h57.45.785,MemLear_ses-01_part-02_label-nBack,2020.1.3,Win32,60,"[""l""]",1,[0.9671000000014942],0,27,27,27,1,street,l,0,NoHit
,,,,,,,2,473878,2021-12-23_12h57.45.785,MemLear_ses-01_part-02_label-nBack,2020.1.3,Win32,60,"[""d""]",1,[1.6341000000014958],0,28,28,28,1,cheer,d,1,Hit
,,,,,,,2,473878,2021-12-23_12h57.45.785,MemLear_ses-01_part-02_label-nBack,2020.1.3,Win32,60,"[""l""]",1,[1.2092000000029657],0,29,29,29,1,taxi,l,0,NoHit
,,,,,,,2,473878,2021-12-23_12h57.45.785,MemLear_ses-01_part-02_label-nBack,2020.1.3,Win32,60,"[""l""]",1,[0.9007999999970195],0,30,30,30,1,adventure,l,0,NoHit
,,,,,,,2,473878,2021-12-23_12h57.45.785,MemLear_ses-01_part-02_label-nBack,2020.1.3,Win32,60,"[""l""]",1,[0.9173000000044738],0,31,31,31,1,crutch,l,0,NoHit
,,,,,,,2,473878,2021-12-23_12h57.45.785,MemLear_ses-01_part-02_label-nBack,2020.1.3,Win32,60,"[""d""]",1,[1.5342999999970175],0,32,32,32,1,adventure,d,1,Hit
,,,,,,,2,473878,2021-12-23_12h57.45.785,MemLear_ses-01_part-02_label-nBack,2020.1.3,Win32,60,"[""l""]",1,[0.7838999999985106],0,33,33,33,1,vest,l,0,NoHit
,,,,,,,2,473878,2021-12-23_12h57.45.785,MemLear_ses-01_part-02_label-nBack,2020.1.3,Win32,60,"[""l""]",1,[0.7674000000059493],0,34,34,34,1,taxi,l,0,NoHit
,,,,,,,2,473878,2021-12-23_12h57.45.785,MemLear_ses-01_part-02_label-nBack,2020.1.3,Win32,60,"[""l""]",1,[0.8505000000000109],0,35,35,35,1,brave,l,0,NoHit
,,,,,,,2,473878,2021-12-23_12h57.45.785,MemLear_ses-01_part-02_label-nBack,2020.1.3,Win32,60,"[""l""]",1,[4.350999999999999],0,36,36,36,1,square,l,0,NoHit
,,,,,,,2,473878,2021-12-23_12h57.45.785,MemLear_ses-01_part-02_label-nBack,2020.1.3,Win32,60,"[""d""]",1,[1.400800000004466],0,37,37,37,1,brave,d,1,Hit
,,,,,,,2,473878,2021-12-23_12h57.45.785,MemLear_ses-01_part-02_label-nBack,2020.1.3,Win32,60,"[""l""]",1,[1.4011000000014917],0,38,38,38,1,unhappy,l,0,NoHit
,,,,,,,2,473878,2021-12-23_12h57.45.785,MemLear_ses-01_part-02_label-nBack,2020.1.3,Win32,60,"[""l""]",1,[0.9508000000044774],0,39,39,39,1,deformed,l,0,NoHit
,,,,,,,2,473878,2021-12-23_12h57.45.785,MemLear_ses-01_part-02_label-nBack,2020.1.3,Win32,60,"[""l""]",1,[2.067799999997021],0,40,40,40,1,rifle,l,0,NoHit
,,,,,,,2,473878,2021-12-23_12h57.45.785,MemLear_ses-01_part-02_label-nBack,2020.1.3,Win32,60,"[""d""]",1,[1.6007000000030018],0,41,41,41,1,deformed,d,1,Hit
,,,,,,,2,473878,2021-12-23_12h57.45.785,MemLear_ses-01_part-02_label-nBack,2020.1.3,Win32,60,"[""l""]",1,[1.2674000000059777],0,42,42,42,1,tense,l,0,NoHit
,,,,,,,2,473878,2021-12-23_12h57.45.785,MemLear_ses-01_part-02_label-nBack,2020.1.3,Win32,60,"[""l""]",1,[0.7339000000059741],0,43,43,43,1,inferior,l,0,NoHit
,,,,,,,2,473878,2021-12-23_12h57.45.785,MemLear_ses-01_part-02_label-nBack,2020.1.3,Win32,60,"[""l""]",1,[0.7173999999985199],0,44,44,44,1,exercise,l,0,NoHit
,,,,,,,2,473878,2021-12-23_12h57.45.785,MemLear_ses-01_part-02_label-nBack,2020.1.3,Win32,60,"[""d""]",1,[1.451100000001503],0,45,45,45,1,inferior,d,1,Hit
,,,,,,,2,473878,2021-12-23_12h57.45.785,MemLear_ses-01_part-02_label-nBack,2020.1.3,Win32,60,"[""l""]",1,[1.0338999999985106],0,46,46,46,1,crutch,l,0,NoHit
,,,,,,,2,473878,2021-12-23_12h57.45.785,MemLear_ses-01_part-02_label-nBack,2020.1.3,Win32,60,"[""l""]",1,[0.48359999999405545],0,47,47,47,1,obesity,l,0,NoHit
,,,,,,,2,473878,2021-12-23_12h57.45.785,MemLear_ses-01_part-02_label-nBack,2020.1.3,Win32,60,"[""l""]",1,[0.8172000000029698],0,48,48,48,1,bless,l,0,NoHit
,,,,,,,2,473878,2021-12-23_12h57.45.785,MemLear_ses-01_part-02_label-nBack,2020.1.3,Win32,60,"[""d""]",1,[0.8502000000029852],0,49,49,49,1,obesity,d,1,Hit
,,,,,,,2,473878,2021-12-23_12h57.45.785,MemLear_ses-01_part-02_label-nBack,2020.1.3,Win32,60,"[""l""]",1,[0.8340000000000032],0,50,50,50,1,pistol,l,0,NoHit
,,,,,,,2,473878,2021-12-23_12h57.45.785,MemLear_ses-01_part-02_label-nBack,2020.1.3,Win32,60,"[""l""]",1,[0.4000000000000057],0,51,51,51,1,bored,l,0,NoHit
,,,,,,,2,473878,2021-12-23_12h57.45.785,MemLear_ses-01_part-02_label-nBack,2020.1.3,Win32,60,"[""l""]",1,[0.8506000000014922],0,52,52,52,1,pity,l,0,NoHit
,,,,,,,2,473878,2021-12-23_12h57.45.785,MemLear_ses-01_part-02_label-nBack,2020.1.3,Win32,60,"[""l""]",1,[1.3177000000029864],0,53,53,53,1,politeness,l,0,NoHit
,,,,,,,2,473878,2021-12-23_12h57.45.785,MemLear_ses-01_part-02_label-nBack,2020.1.3,Win32,60,"[""l""]",0,[2.126900000005975],0,54,54,54,1,pity,d,1,Hit
,,,,,,,2,473878,2021-12-23_12h57.45.785,MemLear_ses-01_part-02_label-nBack,2020.1.3,Win32,60,"[""l""]",1,[0.616899999998509],0,55,55,55,1,beautiful,l,0,NoHit
,,,,,,,2,473878,2021-12-23_12h57.45.785,MemLear_ses-01_part-02_label-nBack,2020.1.3,Win32,60,"[""l""]",1,[0.7504999999999882],0,56,56,56,1,street,l,0,NoHit
,,,,,,,2,473878,2021-12-23_12h57.45.785,MemLear_ses-01_part-02_label-nBack,2020.1.3,Win32,60,"[""d""]",1,[1.0367999999970152],0,57,57,57,1,beautiful,d,1,Hit
,,,,,,,2,473878,2021-12-23_12h57.45.785,MemLear_ses-01_part-02_label-nBack,2020.1.3,Win32,60,"[""l""]",1,[1.2342000000029714],0,58,58,58,1,aroused,l,0,NoHit
,,,,,,,2,473878,2021-12-23_12h57.45.785,MemLear_ses-01_part-02_label-nBack,2020.1.3,Win32,60,"[""l""]",1,[0.5507000000029905],0,59,59,59,1,demon,l,0,NoHit
,,,,,,,2,473878,2021-12-23_12h57.45.785,MemLear_ses-01_part-02_label-nBack,2020.1.3,Win32,60,"[""d""]",1,[0.8839999999999861],0,60,60,60,1,aroused,d,1,Hit
,,,,,,,2,473878,2021-12-23_12h57.45.785,MemLear_ses-01_part-02_label-nBack,2020.1.3,Win32,60,"[""l""]",1,[0.9834999999999923],0,61,61,61,1,cash,l,0,NoHit
,,,,,,,2,473878,2021-12-23_12h57.45.785,MemLear_ses-01_part-02_label-nBack,2020.1.3,Win32,60,"[""l""]",1,[0.6672999999970273],0,62,62,62,1,immature,l,0,NoHit
,,,,,,,2,473878,2021-12-23_12h57.45.785,MemLear_ses-01_part-02_label-nBack,2020.1.3,Win32,60,"[""l""]",1,[1.3703999999985115],0,63,63,63,1,cheer,l,0,NoHit
,,,,,,,2,473878,2021-12-23_12h57.45.785,MemLear_ses-01_part-02_label-nBack,2020.1.3,Win32,60,"[""l""]",0,[1.3676999999955228],0,64,64,64,1,cheer,d,1,Hit
,,,,,,,2,473878,2021-12-23_12h57.45.785,MemLear_ses-01_part-02_label-nBack,2020.1.3,Win32,60,"[""l""]",1,[0.917400000005955],0,65,65,65,1,controlling,l,0,NoHit
,,,,,,,2,473878,2021-12-23_12h57.45.785,MemLear_ses-01_part-02_label-nBack,2020.1.3,Win32,60,"[""l""]",1,[0.6341000000014958],0,66,66,66,1,messy,l,0,NoHit
,,,,,,,2,473878,2021-12-23_12h57.45.785,MemLear_ses-01_part-02_label-nBack,2020.1.3,Win32,60,"[""l""]",1,[0.6506999999955099],0,67,67,67,1,cliff,l,0,NoHit
,,,,,,,2,473878,2021-12-23_12h57.45.785,MemLear_ses-01_part-02_label-nBack,2020.1.3,Win32,60,"[""l""]",1,[0.7673999999985028],0,68,68,68,1,butterfly,l,0,NoHit
,,,,,,,2,473878,2021-12-23_12h57.45.785,MemLear_ses-01_part-02_label-nBack,2020.1.3,Win32,60,"[""d""]",1,[1.4004999999999939],0,69,69,69,1,cliff,d,1,Hit
,,,,,,,2,473878,2021-12-23_12h57.45.785,MemLear_ses-01_part-02_label-nBack,2020.1.3,Win32,60,"[""l""]",1,[1.0012000000029673],0,70,70,70,1,erotic,l,0,NoHit
,,,,,,,2,473878,2021-12-23_12h57.45.785,MemLear_ses-01_part-02_label-nBack,2020.1.3,Win32,60,"[""l""]",1,[0.5837000000029775],0,71,71,71,1,vest,l,0,NoHit
,,,,,,,2,473878,2021-12-23_12h57.45.785,MemLear_ses-01_part-02_label-nBack,2020.1.3,Win32,60,"[""l""]",1,[0.6005000000000109],0,72,72,72,1,dazzle,l,0,NoHit
,,,,,,,2,473878,2021-12-23_12h57.45.785,MemLear_ses-01_part-02_label-nBack,2020.1.3,Win32,60,"[""l""]",1,[1.18420000000296],0,73,73,73,1,disloyal,l,0,NoHit
,,,,,,,2,473878,2021-12-23_12h57.45.785,MemLear_ses-01_part-02_label-nBack,2020.1.3,Win32,60,"[""d""]",1,[0.9512000000029843],0,74,74,74,1,dazzle,d,1,Hit
,,,,,,,2,473878,2021-12-23_12h57.45.785,MemLear_ses-01_part-02_label-nBack,2020.1.3,Win32,60,"[""l""]",1,[0.9007000000029848],0,75,75,75,1,defiant,l,0,NoHit
,,,,,,,2,473878,2021-12-23_12h57.45.785,MemLear_ses-01_part-02_label-nBack,2020.1.3,Win32,60,"[""l""]",1,[0.5671000000014885],0,76,76,76,1,fault,l,0,NoHit
,,,,,,,2,473878,2021-12-23_12h57.45.785,MemLear_ses-01_part-02_label-nBack,2020.1.3,Win32,60,"[""l""]",0,[0.5837999999970123],0,77,77,77,1,defiant,d,1,Hit
,,,,,,,2,473878,2021-12-23_12h57.45.785,MemLear_ses-01_part-02_label-nBack,2020.1.3,Win32,60,"[""l""]",1,[1.150999999999982],0,78,78,78,1,shotgun,l,0,NoHit
,,,,,,,2,473878,2021-12-23_12h57.45.785,MemLear_ses-01_part-02_label-nBack,2020.1.3,Win32,60,"[""l""]",1,[0.6842999999970232],0,79,79,79,1,revolt,l,0,NoHit
,,,,,,,2,473878,2021-12-23_12h57.45.785,MemLear_ses-01_part-02_label-nBack,2020.1.3,Win32,60,"[""l""]",1,[0.8006000000014808],0,80,80,80,1,unhappy,l,0,NoHit
,,,,,,,2,473878,2021-12-23_12h57.45.785,MemLear_ses-01_part-02_label-nBack,2020.1.3,Win32,60,"[""d""]",1,[0.8506000000014922],0,81,81,81,1,revolt,d,1,Hit
,,,,,,,2,473878,2021-12-23_12h57.45.785,MemLear_ses-01_part-02_label-nBack,2020.1.3,Win32,60,"[""l""]",1,[0.733799999997018],0,82,82,82,1,car,l,0,NoHit
,,,,,,,2,473878,2021-12-23_12h57.45.785,MemLear_ses-01_part-02_label-nBack,2020.1.3,Win32,60,"[""l""]",1,[0.5840000000000032],0,83,83,83,1,fight,l,0,NoHit
,,,,,,,2,473878,2021-12-23_12h57.45.785,MemLear_ses-01_part-02_label-nBack,2020.1.3,Win32,60,"[""l""]",1,[1.6510000000000105],0,84,84,84,1,obsession,l,0,NoHit
,,,,,,,2,473878,2021-12-23_12h57.45.785,MemLear_ses-01_part-02_label-nBack,2020.1.3,Win32,60,"[""l""]",0,[0.9838999999984992],0,85,85,85,1,obsession,d,1,Hit
,,,,,,,2,473878,2021-12-23_12h57.45.785,MemLear_ses-01_part-02_label-nBack,2020.1.3,Win32,60,"[""l""]",1,[0.7673999999985028],0,86,86,86,1,messy,l,0,NoHit
,,,,,,,2,473878,2021-12-23_12h57.45.785,MemLear_ses-01_part-02_label-nBack,2020.1.3,Win32,60,"[""l""]",1,[0.6593999999985272],0,87,87,87,1,anger,l,0,NoHit
,,,,,,,2,473878,2021-12-23_12h57.45.785,MemLear_ses-01_part-02_label-nBack,2020.1.3,Win32,60,"[""l""]",1,[0.6672999999970273],0,88,88,88,1,exercise,l,0,NoHit
,,,,,,,2,473878,2021-12-23_12h57.45.785,MemLear_ses-01_part-02_label-nBack,2020.1.3,Win32,60,"[""l""]",0,[0.6834000000059461],0,89,89,89,1,anger,d,1,Hit
,,,,,,,2,473878,2021-12-23_12h57.45.785,MemLear_ses-01_part-02_label-nBack,2020.1.3,Win32,60,"[""l""]",1,[0.7934999999999945],0,90,90,90,1,suspicious,l,0,NoHit
,,,,,,,2,473878,2021-12-23_12h57.45.785,MemLear_ses-01_part-02_label-nBack,2020.1.3,Win32,60,"[""l""]",1,[0.7433999999985019],0,91,91,91,1,politeness,l,0,NoHit
,,,,,,,2,473878,2021-12-23_12h57.45.785,MemLear_ses-01_part-02_label-nBack,2020.1.3,Win32,60,"[""l""]",0,[0.8341000000015129],0,92,92,92,1,suspicious,d,1,Hit
,,,,,,,2,473878,2021-12-23_12h57.45.785,MemLear_ses-01_part-02_label-nBack,2020.1.3,Win32,60,"[""l""]",1,[0.750199999995516],0,93,93,93,1,shark,l,0,NoHit
,,,,,,,2,473878,2021-12-23_12h57.45.785,MemLear_ses-01_part-02_label-nBack,2020.1.3,Win32,60,"[""l""]",1,[0.6342999999970118],0,94,94,94,1,detest,l,0,NoHit
,,,,,,,2,473878,2021-12-23_12h57.45.785,MemLear_ses-01_part-02_label-nBack,2020.1.3,Win32,60,"[""d""]",1,[1.0211000000014963],0,95,95,95,1,shark,d,1,Hit
,,,,,,,2,473878,2021-12-23_12h57.45.785,MemLear_ses-01_part-02_label-nBack,2020.1.3,Win32,60,"[""l""]",1,[0.6672999999970273],0,96,96,96,1,cash,l,0,NoHit
,,,,,,,2,473878,2021-12-23_12h57.45.785,MemLear_ses-01_part-02_label-nBack,2020.1.3,Win32,60,"[""l""]",1,[0.5838999999984935],0,97,97,97,1,cancer,l,0,NoHit
,,,,,,,2,473878,2021-12-23_12h57.45.785,MemLear_ses-01_part-02_label-nBack,2020.1.3,Win32,60,"[""l""]",1,[0.6185999999940464],0,98,98,98,1,pistol,l,0,NoHit
,,,,,,,2,473878,2021-12-23_12h57.45.785,MemLear_ses-01_part-02_label-nBack,2020.1.3,Win32,60,"[""d""]",1,[1.701100000001503],0,99,99,99,1,cancer,d,1,Hit
