myownaccuracy,respcorrs,minNrPractice,considerNrTrials,Instr_resp.keys,Instr_resp.rt,key_resp_2.keys,key_resp_2.rt,instruction_loop.thisRepN,instruction_loop.thisTrialN,instruction_loop.thisN,instruction_loop.thisIndex,instruction_loop.ran,slides,participant,Expra Code,date,expName,psychopyVersion,OS,frameRate,taskGoresp.keys,taskGoresp.rt,pract_resp.keys,pract_resp.corr,myownaccuracyCORR,pract_loop.thisRepN,pract_loop.thisTrialN,pract_loop.thisN,pract_loop.thisIndex,pract_loop.ran,character,left_categ,centleft_categ,centright_categ,right_categ,trial_cond,corr_ans,corr_ans_num,type,img,pract_resp.rt,rep_resp.keys,rep_resp.rt,repeat_practice.thisRepN,repeat_practice.thisTrialN,repeat_practice.thisN,repeat_practice.thisIndex,repeat_practice.ran,task_response.keys,task_response.corr,task_response.rt,task_loop.thisRepN,task_loop.thisTrialN,task_loop.thisN,task_loop.thisIndex,task_loop.ran,condition
[],[],10,10,space,40.225,space,12.9295,0,0,0,0,1,stimuli/slide1.png,3,603301,2021-12-27_13h21.56.108,MemLear_ses-01_part-01_label-phase1,2020.1.3,Win32,60,,,,,,,,,,,,,,,,,,,,,,,,,,,,,,,,,,,,,
,,,,,,space,17.5462,0,1,1,1,1,stimuli/slide2.png,3,603301,2021-12-27_13h21.56.108,MemLear_ses-01_part-01_label-phase1,2020.1.3,Win32,60,,,,,,,,,,,,,,,,,,,,,,,,,,,,,,,,,,,,,
,,,,,,space,53.9762,0,2,2,2,1,stimuli/slide3.png,3,603301,2021-12-27_13h21.56.108,MemLear_ses-01_part-01_label-phase1,2020.1.3,Win32,60,,,,,,,,,,,,,,,,,,,,,,,,,,,,,,,,,,,,,
,,,,,,space,18.5454,0,3,3,3,1,stimuli/slide4.png,3,603301,2021-12-27_13h21.56.108,MemLear_ses-01_part-01_label-phase1,2020.1.3,Win32,60,,,,,,,,,,,,,,,,,,,,,,,,,,,,,,,,,,,,,
,,,,,,space,21.3441,0,4,4,4,1,stimuli/slide5.png,3,603301,2021-12-27_13h21.56.108,MemLear_ses-01_part-01_label-phase1,2020.1.3,Win32,60,,,,,,,,,,,,,,,,,,,,,,,,,,,,,,,,,,,,,
,,,,,,space,5.4909,0,5,5,5,1,stimuli/slide6.png,3,603301,2021-12-27_13h21.56.108,MemLear_ses-01_part-01_label-phase1,2020.1.3,Win32,60,,,,,,,,,,,,,,,,,,,,,,,,,,,,,,,,,,,,,
0,[],,,,,,,,,,,,,3,603301,2021-12-27_13h21.56.108,MemLear_ses-01_part-01_label-phase1,2020.1.3,Win32,60,space,35.0549,,0,0,0,0,0,0,1,stimuli/m_red.jpg,stimuli/Food.png,stimuli/Gamestoy & entertainment.png,stimuli/Vehicle.png,stimuli/Clothing.png,1,Food,1,1,stimuli/objects/chocolatecroissant.jpg,,,,,,,,,,,,,,,,,
0,[0],,,,,,,,,,,,,3,603301,2021-12-27_13h21.56.108,MemLear_ses-01_part-01_label-phase1,2020.1.3,Win32,60,,,1,0,0,0,1,1,1,1,stimuli/m_red.jpg,stimuli/Clothing.png,stimuli/Food.png,stimuli/Gamestoy & entertainment.png,stimuli/Vehicle.png,0,Vehicle,4,0,stimuli/objects/tricycle.jpg,1.6508,,,,,,,,,,,,,,,,
0,[0],,,,,,,,,,,,,3,603301,2021-12-27_13h21.56.108,MemLear_ses-01_part-01_label-phase1,2020.1.3,Win32,60,,,3,0,0,0,2,2,2,1,stimuli/m_blue.jpg,stimuli/Vehicle.png,stimuli/Clothing.png,stimuli/Gamestoy & entertainment.png,stimuli/Food.png,0,Food,4,0,stimuli/objects/cracker02.jpg,1.0365,,,,,,,,,,,,,,,,
0,[0],,,,,,,,,,,,,3,603301,2021-12-27_13h21.56.108,MemLear_ses-01_part-01_label-phase1,2020.1.3,Win32,60,,,2,0,0,0,3,3,3,1,stimuli/m_red.jpg,stimuli/Clothing.png,stimuli/Vehicle.png,stimuli/Gamestoy & entertainment.png,stimuli/Food.png,1,Food,4,1,stimuli/objects/hotdog.jpg,1.3836,,,,,,,,,,,,,,,,
0,"[0,0]",,,,,,,,,,,,,3,603301,2021-12-27_13h21.56.108,MemLear_ses-01_part-01_label-phase1,2020.1.3,Win32,60,,,4,0,0,0,4,4,4,1,stimuli/m_red.jpg,stimuli/Clothing.png,stimuli/Gamestoy & entertainment.png,stimuli/Food.png,stimuli/Vehicle.png,1,Food,3,1,stimuli/objects/kiwi03.jpg,0.7742,,,,,,,,,,,,,,,,
0,"[0,0,0]",,,,,,,,,,,,,3,603301,2021-12-27_13h21.56.108,MemLear_ses-01_part-01_label-phase1,2020.1.3,Win32,60,,,,0,0,0,5,5,5,1,stimuli/m_red.jpg,stimuli/Vehicle.png,stimuli/Gamestoy & entertainment.png,stimuli/Food.png,stimuli/Clothing.png,1,Food,3,1,stimuli/objects/greenolive.jpg,,,,,,,,,,,,,,,,,
0,"[0,0,0,0]",,,,,,,,,,,,,3,603301,2021-12-27_13h21.56.108,MemLear_ses-01_part-01_label-phase1,2020.1.3,Win32,60,,,2,0,0,0,6,6,6,1,stimuli/m_blue.jpg,stimuli/Food.png,stimuli/Clothing.png,stimuli/Vehicle.png,stimuli/Gamestoy & entertainment.png,1,Gamestoy & entertainment,4,1,stimuli/objects/paperairplane.jpg,2.2832,,,,,,,,,,,,,,,,
1,"[0,0,0,0,0]",,,,,,,,,,,,,3,603301,2021-12-27_13h21.56.108,MemLear_ses-01_part-01_label-phase1,2020.1.3,Win32,60,,,2,1,1,0,7,7,7,1,stimuli/m_blue.jpg,stimuli/Vehicle.png,stimuli/Gamestoy & entertainment.png,stimuli/Food.png,stimuli/Clothing.png,1,Gamestoy & entertainment,2,1,stimuli/objects/toyanimal02.jpg,3.0498,,,,,,,,,,,,,,,,
0,"[0,0,0,0,0,1]",,,,,,,,,,,,,3,603301,2021-12-27_13h21.56.108,MemLear_ses-01_part-01_label-phase1,2020.1.3,Win32,60,,,3,0,0,0,8,8,8,1,stimuli/m_red.jpg,stimuli/Vehicle.png,stimuli/Clothing.png,stimuli/Gamestoy & entertainment.png,stimuli/Food.png,1,Food,4,1,stimuli/objects/casabamelon.jpg,1.4572,,,,,,,,,,,,,,,,
0,"[0,0,0,0,0,1,0]",,,,,,,,,,,,,3,603301,2021-12-27_13h21.56.108,MemLear_ses-01_part-01_label-phase1,2020.1.3,Win32,60,,,2,0,0,0,9,9,9,1,stimuli/m_blue.jpg,stimuli/Gamestoy & entertainment.png,stimuli/Clothing.png,stimuli/Vehicle.png,stimuli/Food.png,1,Gamestoy & entertainment,1,1,stimuli/objects/paddleball.jpg,2.5048,,,,,,,,,,,,,,,,
1,"[0,0,0,0,0,1,0,0]",,,,,,,,,,,,,3,603301,2021-12-27_13h21.56.108,MemLear_ses-01_part-01_label-phase1,2020.1.3,Win32,60,,,1,1,1,0,10,10,10,1,stimuli/m_blue.jpg,stimuli/Gamestoy & entertainment.png,stimuli/Clothing.png,stimuli/Food.png,stimuli/Vehicle.png,1,Gamestoy & entertainment,1,1,stimuli/objects/rockinghorse.jpg,2.0272,,,,,,,,,,,,,,,,
0,"[0,0,0,0,0,1,0,0,1]",,,,,,,,,,,,,3,603301,2021-12-27_13h21.56.108,MemLear_ses-01_part-01_label-phase1,2020.1.3,Win32,60,,,3,0,0,0,11,11,11,1,stimuli/m_red.jpg,stimuli/Vehicle.png,stimuli/Food.png,stimuli/Clothing.png,stimuli/Gamestoy & entertainment.png,1,Food,2,1,stimuli/objects/arugula.jpg,3.4895,,,,,,,,,,,,,,,,
1,"[0,0,0,0,0,1,0,0,1,0]",,,,,,,,,,,,,3,603301,2021-12-27_13h21.56.108,MemLear_ses-01_part-01_label-phase1,2020.1.3,Win32,60,,,3,1,1,0,12,12,12,1,stimuli/m_blue.jpg,stimuli/Food.png,stimuli/Clothing.png,stimuli/Gamestoy & entertainment.png,stimuli/Vehicle.png,1,Gamestoy & entertainment,3,1,stimuli/objects/dartboard.jpg,2.2557,,,,,,,,,,,,,,,,
1,"[0,0,0,0,0,1,0,0,1,0,1]",,,,,,,,,,,,,3,603301,2021-12-27_13h21.56.108,MemLear_ses-01_part-01_label-phase1,2020.1.3,Win32,60,,,4,1,1,0,13,13,13,1,stimuli/m_red.jpg,stimuli/Clothing.png,stimuli/Gamestoy & entertainment.png,stimuli/Vehicle.png,stimuli/Food.png,1,Food,4,1,stimuli/objects/chickenshishkebab.jpg,3.8181,,,,,,,,,,,,,,,,
1,"[0,0,0,0,0,1,0,0,1,0,1,1]",,,,,,,,,,,,,3,603301,2021-12-27_13h21.56.108,MemLear_ses-01_part-01_label-phase1,2020.1.3,Win32,60,,,3,1,1,0,14,14,14,1,stimuli/m_red.jpg,stimuli/Clothing.png,stimuli/Gamestoy & entertainment.png,stimuli/Food.png,stimuli/Vehicle.png,1,Food,3,1,stimuli/objects/relish.jpg,2.8304,,,,,,,,,,,,,,,,
1,"[0,0,0,0,0,1,0,0,1,0,1,1,1]",,,,,,,,,,,,,3,603301,2021-12-27_13h21.56.108,MemLear_ses-01_part-01_label-phase1,2020.1.3,Win32,60,,,2,1,1,0,15,15,15,1,stimuli/m_blue.jpg,stimuli/Food.png,stimuli/Gamestoy & entertainment.png,stimuli/Clothing.png,stimuli/Vehicle.png,1,Gamestoy & entertainment,2,1,stimuli/objects/toyanimal01.jpg,2.7745,,,,,,,,,,,,,,,,
0,"[0,0,0,0,0,1,0,0,1,0,1,1,1,1]",,,,,,,,,,,,,3,603301,2021-12-27_13h21.56.108,MemLear_ses-01_part-01_label-phase1,2020.1.3,Win32,60,,,1,0,1,0,16,16,16,1,stimuli/m_red.jpg,stimuli/Food.png,stimuli/Vehicle.png,stimuli/Clothing.png,stimuli/Gamestoy & entertainment.png,0,Gamestoy & entertainment,4,0,stimuli/objects/toyshape.jpg,1.3935,,,,,,,,,,,,,,,,
1,"[0,0,0,0,0,1,0,0,1,0,1,1,1,1]",,,,,,,,,,,,,3,603301,2021-12-27_13h21.56.108,MemLear_ses-01_part-01_label-phase1,2020.1.3,Win32,60,,,2,1,1,0,17,17,17,1,stimuli/m_blue.jpg,stimuli/Food.png,stimuli/Gamestoy & entertainment.png,stimuli/Vehicle.png,stimuli/Clothing.png,1,Gamestoy & entertainment,2,1,stimuli/objects/rattle.jpg,2.1651,,,,,,,,,,,,,,,,
0,"[0,0,0,0,0,1,0,0,1,0,1,1,1,1,1]",,,,,,,,,,,,,3,603301,2021-12-27_13h21.56.108,MemLear_ses-01_part-01_label-phase1,2020.1.3,Win32,60,,,3,0,1,0,18,18,18,1,stimuli/m_blue.jpg,stimuli/Clothing.png,stimuli/Food.png,stimuli/Gamestoy & entertainment.png,stimuli/Vehicle.png,0,Vehicle,4,0,stimuli/objects/cementtruck.jpg,3.4075,,,,,,,,,,,,,,,,
1,"[0,0,0,0,0,1,0,0,1,0,1,1,1,1,1]",,,,,,,,,,,,,3,603301,2021-12-27_13h21.56.108,MemLear_ses-01_part-01_label-phase1,2020.1.3,Win32,60,,,1,1,1,0,19,19,19,1,stimuli/m_red.jpg,stimuli/Vehicle.png,stimuli/Gamestoy & entertainment.png,stimuli/Clothing.png,stimuli/Food.png,0,Vehicle,1,0,stimuli/objects/scissorlift.jpg,1.7598,,,,,,,,,,,,,,,,
0,"[0,0,0,0,0,1,0,0,1,0,1,1,1,1,1]",,,,,,,,,,,,,3,603301,2021-12-27_13h21.56.108,MemLear_ses-01_part-01_label-phase1,2020.1.3,Win32,60,,,,0,0,0,20,20,20,1,stimuli/m_blue.jpg,stimuli/Gamestoy & entertainment.png,stimuli/Food.png,stimuli/Vehicle.png,stimuli/Clothing.png,1,Gamestoy & entertainment,1,1,stimuli/objects/toydinosaur.jpg,,,,,,,,,,,,,,,,,
1,"[0,0,0,0,0,1,0,0,1,0,1,1,1,1,1,0]",,,,,,,,,,,,,3,603301,2021-12-27_13h21.56.108,MemLear_ses-01_part-01_label-phase1,2020.1.3,Win32,60,,,4,1,1,0,21,21,21,1,stimuli/m_blue.jpg,stimuli/Clothing.png,stimuli/Vehicle.png,stimuli/Food.png,stimuli/Gamestoy & entertainment.png,1,Gamestoy & entertainment,4,1,stimuli/objects/sandbagthrowgame.jpg,1.9802,,,,,,,,,,,,,,,,
0,"[0,0,0,0,0,1,0,0,1,0,1,1,1,1,1,0,1]",,,,,,,,,,,,,3,603301,2021-12-27_13h21.56.108,MemLear_ses-01_part-01_label-phase1,2020.1.3,Win32,60,,,2,0,1,0,22,22,22,1,stimuli/m_blue.jpg,stimuli/Food.png,stimuli/Gamestoy & entertainment.png,stimuli/Clothing.png,stimuli/Vehicle.png,0,Clothing,3,0,stimuli/objects/hikingshoe01.jpg,3.1102,,,,,,,,,,,,,,,,
0,"[0,0,0,0,0,1,0,0,1,0,1,1,1,1,1,0,1]",,,,,,,,,,,,,3,603301,2021-12-27_13h21.56.108,MemLear_ses-01_part-01_label-phase1,2020.1.3,Win32,60,,,2,0,0,0,23,23,23,1,stimuli/m_blue.jpg,stimuli/Food.png,stimuli/Clothing.png,stimuli/Vehicle.png,stimuli/Gamestoy & entertainment.png,1,Gamestoy & entertainment,4,1,stimuli/objects/beachpaddle01a.jpg,1.417,,,,,,,,,,,,,,,,
0,"[0,0,0,0,0,1,0,0,1,0,1,1,1,1,1,0,1,0]",,,,,,,,,,,,,3,603301,2021-12-27_13h21.56.108,MemLear_ses-01_part-01_label-phase1,2020.1.3,Win32,60,,,2,0,0,0,24,24,24,1,stimuli/m_red.jpg,stimuli/Food.png,stimuli/Gamestoy & entertainment.png,stimuli/Clothing.png,stimuli/Vehicle.png,1,Food,1,1,stimuli/objects/apricot.jpg,1.7448,,,,,,,,,,,,,,,,
1,"[0,0,0,0,0,1,0,0,1,0,1,1,1,1,1,0,1,0,0]",,,,,,,,,,,,,3,603301,2021-12-27_13h21.56.108,MemLear_ses-01_part-01_label-phase1,2020.1.3,Win32,60,,,1,1,0,0,25,25,25,1,stimuli/m_blue.jpg,stimuli/Food.png,stimuli/Vehicle.png,stimuli/Gamestoy & entertainment.png,stimuli/Clothing.png,0,Food,1,0,stimuli/objects/croissant01.jpg,1.0668,,,,,,,,,,,,,,,,
0,"[0,0,0,0,0,1,0,0,1,0,1,1,1,1,1,0,1,0,0]",,,,,,,,,,,,,3,603301,2021-12-27_13h21.56.108,MemLear_ses-01_part-01_label-phase1,2020.1.3,Win32,60,,,4,0,0,0,26,26,26,1,stimuli/m_red.jpg,stimuli/Clothing.png,stimuli/Food.png,stimuli/Vehicle.png,stimuli/Gamestoy & entertainment.png,1,Food,2,1,stimuli/objects/icecreamcone01a.jpg,2.6834,,,,,,,,,,,,,,,,
0,"[0,0,0,0,0,1,0,0,1,0,1,1,1,1,1,0,1,0,0,0]",,,,,,,,,,,,,3,603301,2021-12-27_13h21.56.108,MemLear_ses-01_part-01_label-phase1,2020.1.3,Win32,60,,,,0,0,0,27,27,27,1,stimuli/m_blue.jpg,stimuli/Clothing.png,stimuli/Food.png,stimuli/Vehicle.png,stimuli/Gamestoy & entertainment.png,0,Clothing,1,0,stimuli/objects/tie02.jpg,,,,,,,,,,,,,,,,,
0,"[0,0,0,0,0,1,0,0,1,0,1,1,1,1,1,0,1,0,0,0]",,,,,,,,,,,,,3,603301,2021-12-27_13h21.56.108,MemLear_ses-01_part-01_label-phase1,2020.1.3,Win32,60,,,3,0,0,0,28,28,28,1,stimuli/m_blue.jpg,stimuli/Vehicle.png,stimuli/Gamestoy & entertainment.png,stimuli/Clothing.png,stimuli/Food.png,1,Gamestoy & entertainment,2,1,stimuli/objects/marble.jpg,2.8021,,,,,,,,,,,,,,,,
0,"[0,0,0,0,0,1,0,0,1,0,1,1,1,1,1,0,1,0,0,0,0]",,,,,,,,,,,,,3,603301,2021-12-27_13h21.56.108,MemLear_ses-01_part-01_label-phase1,2020.1.3,Win32,60,,,2,0,0,0,29,29,29,1,stimuli/m_red.jpg,stimuli/Gamestoy & entertainment.png,stimuli/Vehicle.png,stimuli/Food.png,stimuli/Clothing.png,1,Food,3,1,stimuli/objects/baguette01.jpg,2.8409,,,,,,,,,,,,,,,,
0,"[0,0,0,0,0,1,0,0,1,0,1,1,1,1,1,0,1,0,0,0,0,0]",,,,,,,,,,,,,3,603301,2021-12-27_13h21.56.108,MemLear_ses-01_part-01_label-phase1,2020.1.3,Win32,60,,,3,0,0,0,30,30,30,1,stimuli/m_blue.jpg,stimuli/Gamestoy & entertainment.png,stimuli/Vehicle.png,stimuli/Food.png,stimuli/Clothing.png,1,Gamestoy & entertainment,1,1,stimuli/objects/pusharoundtoy.jpg,1.5109,,,,,,,,,,,,,,,,
0,"[0,0,0,0,0,1,0,0,1,0,1,1,1,1,1,0,1,0,0,0,0,0,0]",,,,,,,,,,,,,3,603301,2021-12-27_13h21.56.108,MemLear_ses-01_part-01_label-phase1,2020.1.3,Win32,60,,,,0,0,0,31,31,31,1,stimuli/m_blue.jpg,stimuli/Food.png,stimuli/Vehicle.png,stimuli/Clothing.png,stimuli/Gamestoy & entertainment.png,1,Gamestoy & entertainment,4,1,stimuli/objects/puzzlepiece.jpg,,,,,,,,,,,,,,,,,
1,"[0,0,0,0,0,1,0,0,1,0,1,1,1,1,1,0,1,0,0,0,0,0,0,0]",,,,,,,,,,,,,3,603301,2021-12-27_13h21.56.108,MemLear_ses-01_part-01_label-phase1,2020.1.3,Win32,60,,,1,1,1,0,32,32,32,1,stimuli/m_blue.jpg,stimuli/Gamestoy & entertainment.png,stimuli/Vehicle.png,stimuli/Clothing.png,stimuli/Food.png,1,Gamestoy & entertainment,1,1,stimuli/objects/interlockingbuildingblock03b.jpg,2.6243,,,,,,,,,,,,,,,,
1,"[0,0,0,0,0,1,0,0,1,0,1,1,1,1,1,0,1,0,0,0,0,0,0,0,1]",,,,,,,,,,,,,3,603301,2021-12-27_13h21.56.108,MemLear_ses-01_part-01_label-phase1,2020.1.3,Win32,60,,,4,1,1,0,33,33,33,1,stimuli/m_blue.jpg,stimuli/Vehicle.png,stimuli/Food.png,stimuli/Clothing.png,stimuli/Gamestoy & entertainment.png,1,Gamestoy & entertainment,4,1,stimuli/objects/airhockeytable.jpg,3.2682,,,,,,,,,,,,,,,,
1,"[0,0,0,0,0,1,0,0,1,0,1,1,1,1,1,0,1,0,0,0,0,0,0,0,1,1]",,,,,,,,,,,,,3,603301,2021-12-27_13h21.56.108,MemLear_ses-01_part-01_label-phase1,2020.1.3,Win32,60,,,2,1,1,0,34,34,34,1,stimuli/m_red.jpg,stimuli/Vehicle.png,stimuli/Food.png,stimuli/Gamestoy & entertainment.png,stimuli/Clothing.png,1,Food,2,1,stimuli/objects/tortilla.jpg,2.2436,,,,,,,,,,,,,,,,
0,"[0,0,0,0,0,1,0,0,1,0,1,1,1,1,1,0,1,0,0,0,0,0,0,0,1,1,1]",,,,,,,,,,,,,3,603301,2021-12-27_13h21.56.108,MemLear_ses-01_part-01_label-phase1,2020.1.3,Win32,60,,,4,0,1,0,35,35,35,1,stimuli/m_red.jpg,stimuli/Clothing.png,stimuli/Vehicle.png,stimuli/Gamestoy & entertainment.png,stimuli/Food.png,0,Gamestoy & entertainment,3,0,stimuli/objects/chessknight03a.jpg,1.9211,,,,,,,,,,,,,,,,
1,"[0,0,0,0,0,1,0,0,1,0,1,1,1,1,1,0,1,0,0,0,0,0,0,0,1,1,1]",,,,,,,,,,,,,3,603301,2021-12-27_13h21.56.108,MemLear_ses-01_part-01_label-phase1,2020.1.3,Win32,60,,,3,1,1,0,36,36,36,1,stimuli/m_blue.jpg,stimuli/Clothing.png,stimuli/Food.png,stimuli/Gamestoy & entertainment.png,stimuli/Vehicle.png,1,Gamestoy & entertainment,3,1,stimuli/objects/toyanimal05.jpg,2.2237,,,,,,,,,,,,,,,,
1,"[0,0,0,0,0,1,0,0,1,0,1,1,1,1,1,0,1,0,0,0,0,0,0,0,1,1,1,1]",,,,,,,,,,,,,3,603301,2021-12-27_13h21.56.108,MemLear_ses-01_part-01_label-phase1,2020.1.3,Win32,60,,,4,1,1,0,37,37,37,1,stimuli/m_blue.jpg,stimuli/Vehicle.png,stimuli/Food.png,stimuli/Clothing.png,stimuli/Gamestoy & entertainment.png,1,Gamestoy & entertainment,4,1,stimuli/objects/puppettheatre.jpg,1.6094,,,,,,,,,,,,,,,,
0,"[0,0,0,0,0,1,0,0,1,0,1,1,1,1,1,0,1,0,0,0,0,0,0,0,1,1,1,1,1]",,,,,,,,,,,,,3,603301,2021-12-27_13h21.56.108,MemLear_ses-01_part-01_label-phase1,2020.1.3,Win32,60,,,1,0,1,0,38,38,38,1,stimuli/m_blue.jpg,stimuli/Gamestoy & entertainment.png,stimuli/Clothing.png,stimuli/Vehicle.png,stimuli/Food.png,0,Food,4,0,stimuli/objects/salsa.jpg,1.5041,,,,,,,,,,,,,,,,
1,"[0,0,0,0,0,1,0,0,1,0,1,1,1,1,1,0,1,0,0,0,0,0,0,0,1,1,1,1,1]",,,,,,,,,,,,,3,603301,2021-12-27_13h21.56.108,MemLear_ses-01_part-01_label-phase1,2020.1.3,Win32,60,,,4,1,1,0,39,39,39,1,stimuli/m_red.jpg,stimuli/Gamestoy & entertainment.png,stimuli/Vehicle.png,stimuli/Clothing.png,stimuli/Food.png,1,Food,4,1,stimuli/objects/walnut01c.jpg,2.116,,,,,,,,,,,,,,,,
1,"[0,0,0,0,0,1,0,0,1,0,1,1,1,1,1,0,1,0,0,0,0,0,0,0,1,1,1,1,1,1]",,,,,,,,,,,,,3,603301,2021-12-27_13h21.56.108,MemLear_ses-01_part-01_label-phase1,2020.1.3,Win32,60,,,4,1,1,0,40,40,40,1,stimuli/m_red.jpg,stimuli/Gamestoy & entertainment.png,stimuli/Clothing.png,stimuli/Vehicle.png,stimuli/Food.png,1,Food,4,1,stimuli/objects/potato02b.jpg,1.2953,,,,,,,,,,,,,,,,
0,"[0,0,0,0,0,1,0,0,1,0,1,1,1,1,1,0,1,0,0,0,0,0,0,0,1,1,1,1,1,1,1]",,,,,,,,,,,,,3,603301,2021-12-27_13h21.56.108,MemLear_ses-01_part-01_label-phase1,2020.1.3,Win32,60,,,3,0,1,0,41,41,41,1,stimuli/m_blue.jpg,stimuli/Clothing.png,stimuli/Vehicle.png,stimuli/Gamestoy & entertainment.png,stimuli/Food.png,0,Clothing,1,0,stimuli/objects/sheriffhat.jpg,1.8164,,,,,,,,,,,,,,,,
1,"[0,0,0,0,0,1,0,0,1,0,1,1,1,1,1,0,1,0,0,0,0,0,0,0,1,1,1,1,1,1,1]",,,,,,,,,,,,,3,603301,2021-12-27_13h21.56.108,MemLear_ses-01_part-01_label-phase1,2020.1.3,Win32,60,,,4,1,1,0,42,42,42,1,stimuli/m_red.jpg,stimuli/Vehicle.png,stimuli/Gamestoy & entertainment.png,stimuli/Clothing.png,stimuli/Food.png,1,Food,4,1,stimuli/objects/spaghetti01.jpg,0.72,,,,,,,,,,,,,,,,
,,,,,,,,,,,,,,3,603301,2021-12-27_13h21.56.108,MemLear_ses-01_part-01_label-phase1,2020.1.3,Win32,60,,,,,,,,,,,,,,,,,,,,,,n,105.3946,0,0,0,0,1,,,,,,,,,
,,,,,,,,,,,,,,3,603301,2021-12-27_13h21.56.108,MemLear_ses-01_part-01_label-phase1,2020.1.3,Win32,60,,,,,,,,,,,stimuli/m_orange.jpg,stimuli/Kitchen & utensil.png,stimuli/Outdoor activity & sport item.png,stimuli/Hand labour tool & accessory.png,stimuli/Electronic device & accessory.png,,Electronic device & accessory,4,1,stimuli/objects/spotlight.jpg,,,,,,,,,4,1,2.9919,0,0,0,0,1,1
,,,,,,,,,,,,,,3,603301,2021-12-27_13h21.56.108,MemLear_ses-01_part-01_label-phase1,2020.1.3,Win32,60,,,,,,,,,,,stimuli/m_black.jpg,stimuli/Kitchen & utensil.png,stimuli/Outdoor activity & sport item.png,stimuli/Electronic device & accessory.png,stimuli/Hand labour tool & accessory.png,,Kitchen & utensil,1,1,stimuli/objects/peppermill02b.jpg,,,,,,,,,,0,,0,1,1,1,1,0
,,,,,,,,,,,,,,3,603301,2021-12-27_13h21.56.108,MemLear_ses-01_part-01_label-phase1,2020.1.3,Win32,60,,,,,,,,,,,stimuli/m_black.jpg,stimuli/Hand labour tool & accessory.png,stimuli/Electronic device & accessory.png,stimuli/Outdoor activity & sport item.png,stimuli/Kitchen & utensil.png,,Kitchen & utensil,4,1,stimuli/objects/canister.jpg,,,,,,,,,2,0,1.7067,0,2,2,2,1,0
,,,,,,,,,,,,,,3,603301,2021-12-27_13h21.56.108,MemLear_ses-01_part-01_label-phase1,2020.1.3,Win32,60,,,,,,,,,,,stimuli/m_orange.jpg,stimuli/Electronic device & accessory.png,stimuli/Outdoor activity & sport item.png,stimuli/Kitchen & utensil.png,stimuli/Hand labour tool & accessory.png,,Kitchen & utensil,3,0,stimuli/objects/fryingpan02a.jpg,,,,,,,,,1,0,2.4016,0,3,3,3,1,1
,,,,,,,,,,,,,,3,603301,2021-12-27_13h21.56.108,MemLear_ses-01_part-01_label-phase1,2020.1.3,Win32,60,,,,,,,,,,,stimuli/m_black.jpg,stimuli/Kitchen & utensil.png,stimuli/Electronic device & accessory.png,stimuli/Hand labour tool & accessory.png,stimuli/Outdoor activity & sport item.png,,Kitchen & utensil,1,1,stimuli/objects/muffintray01.jpg,,,,,,,,,1,1,1.8135,0,4,4,4,1,0
,,,,,,,,,,,,,,3,603301,2021-12-27_13h21.56.108,MemLear_ses-01_part-01_label-phase1,2020.1.3,Win32,60,,,,,,,,,,,stimuli/m_orange.jpg,stimuli/Hand labour tool & accessory.png,stimuli/Outdoor activity & sport item.png,stimuli/Kitchen & utensil.png,stimuli/Electronic device & accessory.png,,Kitchen & utensil,3,0,stimuli/objects/bowl02a.jpg,,,,,,,,,4,0,0.6835,0,5,5,5,1,1
,,,,,,,,,,,,,,3,603301,2021-12-27_13h21.56.108,MemLear_ses-01_part-01_label-phase1,2020.1.3,Win32,60,,,,,,,,,,,stimuli/m_black.jpg,stimuli/Kitchen & utensil.png,stimuli/Electronic device & accessory.png,stimuli/Outdoor activity & sport item.png,stimuli/Hand labour tool & accessory.png,,Kitchen & utensil,1,1,stimuli/objects/cowbell.jpg,,,,,,,,,1,1,0.6197,0,6,6,6,1,0
,,,,,,,,,,,,,,3,603301,2021-12-27_13h21.56.108,MemLear_ses-01_part-01_label-phase1,2020.1.3,Win32,60,,,,,,,,,,,stimuli/m_orange.jpg,stimuli/Hand labour tool & accessory.png,stimuli/Kitchen & utensil.png,stimuli/Outdoor activity & sport item.png,stimuli/Electronic device & accessory.png,,Electronic device & accessory,4,1,stimuli/objects/usbkey.jpg,,,,,,,,,4,1,0.4568,0,7,7,7,1,1
,,,,,,,,,,,,,,3,603301,2021-12-27_13h21.56.108,MemLear_ses-01_part-01_label-phase1,2020.1.3,Win32,60,,,,,,,,,,,stimuli/m_black.jpg,stimuli/Outdoor activity & sport item.png,stimuli/Kitchen & utensil.png,stimuli/Hand labour tool & accessory.png,stimuli/Electronic device & accessory.png,,Outdoor activity & sport item,1,0,stimuli/objects/toyhockeystick01.jpg,,,,,,,,,2,0,0.7809,0,8,8,8,1,0
,,,,,,,,,,,,,,3,603301,2021-12-27_13h21.56.108,MemLear_ses-01_part-01_label-phase1,2020.1.3,Win32,60,,,,,,,,,,,stimuli/m_orange.jpg,stimuli/Hand labour tool & accessory.png,stimuli/Electronic device & accessory.png,stimuli/Outdoor activity & sport item.png,stimuli/Kitchen & utensil.png,,Hand labour tool & accessory,1,0,stimuli/objects/tablesaw.jpg,,,,,,,,,2,0,2.1301,0,9,9,9,1,1
,,,,,,,,,,,,,,3,603301,2021-12-27_13h21.56.108,MemLear_ses-01_part-01_label-phase1,2020.1.3,Win32,60,,,,,,,,,,,stimuli/m_black.jpg,stimuli/Kitchen & utensil.png,stimuli/Hand labour tool & accessory.png,stimuli/Outdoor activity & sport item.png,stimuli/Electronic device & accessory.png,,Kitchen & utensil,1,1,stimuli/objects/kitchenscale01a.jpg,,,,,,,,,3,0,1.9979,0,10,10,10,1,0
,,,,,,,,,,,,,,3,603301,2021-12-27_13h21.56.108,MemLear_ses-01_part-01_label-phase1,2020.1.3,Win32,60,,,,,,,,,,,stimuli/m_orange.jpg,stimuli/Outdoor activity & sport item.png,stimuli/Kitchen & utensil.png,stimuli/Hand labour tool & accessory.png,stimuli/Electronic device & accessory.png,,Electronic device & accessory,4,1,stimuli/objects/securitycamera.jpg,,,,,,,,,4,1,0.5438,0,11,11,11,1,1
,,,,,,,,,,,,,,3,603301,2021-12-27_13h21.56.108,MemLear_ses-01_part-01_label-phase1,2020.1.3,Win32,60,,,,,,,,,,,stimuli/m_orange.jpg,stimuli/Kitchen & utensil.png,stimuli/Electronic device & accessory.png,stimuli/Outdoor activity & sport item.png,stimuli/Hand labour tool & accessory.png,,Electronic device & accessory,2,1,stimuli/objects/photocopier.jpg,,,,,,,,,4,0,0.9386,0,12,12,12,1,1
,,,,,,,,,,,,,,3,603301,2021-12-27_13h21.56.108,MemLear_ses-01_part-01_label-phase1,2020.1.3,Win32,60,,,,,,,,,,,stimuli/m_orange.jpg,stimuli/Outdoor activity & sport item.png,stimuli/Hand labour tool & accessory.png,stimuli/Kitchen & utensil.png,stimuli/Electronic device & accessory.png,,Electronic device & accessory,4,1,stimuli/objects/phonejack.jpg,,,,,,,,,4,1,1.605,0,13,13,13,1,1
,,,,,,,,,,,,,,3,603301,2021-12-27_13h21.56.108,MemLear_ses-01_part-01_label-phase1,2020.1.3,Win32,60,,,,,,,,,,,stimuli/m_orange.jpg,stimuli/Hand labour tool & accessory.png,stimuli/Electronic device & accessory.png,stimuli/Kitchen & utensil.png,stimuli/Outdoor activity & sport item.png,,Hand labour tool & accessory,1,0,stimuli/objects/swissarmyknife01a.jpg,,,,,,,,,2,0,1.9741,0,14,14,14,1,1
,,,,,,,,,,,,,,3,603301,2021-12-27_13h21.56.108,MemLear_ses-01_part-01_label-phase1,2020.1.3,Win32,60,,,,,,,,,,,stimuli/m_orange.jpg,stimuli/Outdoor activity & sport item.png,stimuli/Kitchen & utensil.png,stimuli/Hand labour tool & accessory.png,stimuli/Electronic device & accessory.png,,Electronic device & accessory,4,1,stimuli/objects/lamp04a.jpg,,,,,,,,,4,1,1.779,0,15,15,15,1,1
,,,,,,,,,,,,,,3,603301,2021-12-27_13h21.56.108,MemLear_ses-01_part-01_label-phase1,2020.1.3,Win32,60,,,,,,,,,,,stimuli/m_black.jpg,stimuli/Hand labour tool & accessory.png,stimuli/Kitchen & utensil.png,stimuli/Outdoor activity & sport item.png,stimuli/Electronic device & accessory.png,,Kitchen & utensil,2,1,stimuli/objects/pastaspoon.jpg,,,,,,,,,2,1,1.5842,0,16,16,16,1,0
,,,,,,,,,,,,,,3,603301,2021-12-27_13h21.56.108,MemLear_ses-01_part-01_label-phase1,2020.1.3,Win32,60,,,,,,,,,,,stimuli/m_black.jpg,stimuli/Electronic device & accessory.png,stimuli/Outdoor activity & sport item.png,stimuli/Hand labour tool & accessory.png,stimuli/Kitchen & utensil.png,,Kitchen & utensil,4,1,stimuli/objects/fonduefork01.jpg,,,,,,,,,4,1,2.2807,0,17,17,17,1,0
,,,,,,,,,,,,,,3,603301,2021-12-27_13h21.56.108,MemLear_ses-01_part-01_label-phase1,2020.1.3,Win32,60,,,,,,,,,,,stimuli/m_black.jpg,stimuli/Outdoor activity & sport item.png,stimuli/Kitchen & utensil.png,stimuli/Hand labour tool & accessory.png,stimuli/Electronic device & accessory.png,,Kitchen & utensil,2,1,stimuli/objects/dishrack.jpg,,,,,,,,,2,1,1.7372,0,18,18,18,1,0
,,,,,,,,,,,,,,3,603301,2021-12-27_13h21.56.108,MemLear_ses-01_part-01_label-phase1,2020.1.3,Win32,60,,,,,,,,,,,stimuli/m_orange.jpg,stimuli/Kitchen & utensil.png,stimuli/Electronic device & accessory.png,stimuli/Outdoor activity & sport item.png,stimuli/Hand labour tool & accessory.png,,Electronic device & accessory,2,1,stimuli/objects/expansioncard.jpg,,,,,,,,,2,1,1.3503,0,19,19,19,1,1
,,,,,,,,,,,,,,3,603301,2021-12-27_13h21.56.108,MemLear_ses-01_part-01_label-phase1,2020.1.3,Win32,60,,,,,,,,,,,stimuli/m_black.jpg,stimuli/Electronic device & accessory.png,stimuli/Hand labour tool & accessory.png,stimuli/Outdoor activity & sport item.png,stimuli/Kitchen & utensil.png,,Kitchen & utensil,4,1,stimuli/objects/tupperware03a.jpg,,,,,,,,,4,1,1.4068,0,20,20,20,1,0
,,,,,,,,,,,,,,3,603301,2021-12-27_13h21.56.108,MemLear_ses-01_part-01_label-phase1,2020.1.3,Win32,60,,,,,,,,,,,stimuli/m_orange.jpg,stimuli/Electronic device & accessory.png,stimuli/Hand labour tool & accessory.png,stimuli/Outdoor activity & sport item.png,stimuli/Kitchen & utensil.png,,Outdoor activity & sport item,3,0,stimuli/objects/surfboard.jpg,,,,,,,,,1,0,1.1427,0,21,21,21,1,1
,,,,,,,,,,,,,,3,603301,2021-12-27_13h21.56.108,MemLear_ses-01_part-01_label-phase1,2020.1.3,Win32,60,,,,,,,,,,,stimuli/m_orange.jpg,stimuli/Kitchen & utensil.png,stimuli/Hand labour tool & accessory.png,stimuli/Outdoor activity & sport item.png,stimuli/Electronic device & accessory.png,,Electronic device & accessory,4,1,stimuli/objects/electricoutlet.jpg,,,,,,,,,4,1,1.307,0,22,22,22,1,1
,,,,,,,,,,,,,,3,603301,2021-12-27_13h21.56.108,MemLear_ses-01_part-01_label-phase1,2020.1.3,Win32,60,,,,,,,,,,,stimuli/m_black.jpg,stimuli/Electronic device & accessory.png,stimuli/Hand labour tool & accessory.png,stimuli/Kitchen & utensil.png,stimuli/Outdoor activity & sport item.png,,Kitchen & utensil,3,1,stimuli/objects/beermug01a.jpg,,,,,,,,,2,0,1.4278,0,23,23,23,1,0
,,,,,,,,,,,,,,3,603301,2021-12-27_13h21.56.108,MemLear_ses-01_part-01_label-phase1,2020.1.3,Win32,60,,,,,,,,,,,stimuli/m_orange.jpg,stimuli/Kitchen & utensil.png,stimuli/Hand labour tool & accessory.png,stimuli/Outdoor activity & sport item.png,stimuli/Electronic device & accessory.png,,Electronic device & accessory,4,1,stimuli/objects/scanner.jpg,,,,,,,,,3,0,1.4347,0,24,24,24,1,1
,,,,,,,,,,,,,,3,603301,2021-12-27_13h21.56.108,MemLear_ses-01_part-01_label-phase1,2020.1.3,Win32,60,,,,,,,,,,,stimuli/m_black.jpg,stimuli/Electronic device & accessory.png,stimuli/Hand labour tool & accessory.png,stimuli/Kitchen & utensil.png,stimuli/Outdoor activity & sport item.png,,Electronic device & accessory,1,0,stimuli/objects/filmnegative.jpg,,,,,,,,,3,0,0.9989,0,25,25,25,1,0
,,,,,,,,,,,,,,3,603301,2021-12-27_13h21.56.108,MemLear_ses-01_part-01_label-phase1,2020.1.3,Win32,60,,,,,,,,,,,stimuli/m_black.jpg,stimuli/Hand labour tool & accessory.png,stimuli/Electronic device & accessory.png,stimuli/Kitchen & utensil.png,stimuli/Outdoor activity & sport item.png,,Kitchen & utensil,3,1,stimuli/objects/cleaver01.jpg,,,,,,,,,,0,,0,26,26,26,1,0
,,,,,,,,,,,,,,3,603301,2021-12-27_13h21.56.108,MemLear_ses-01_part-01_label-phase1,2020.1.3,Win32,60,,,,,,,,,,,stimuli/m_orange.jpg,stimuli/Electronic device & accessory.png,stimuli/Kitchen & utensil.png,stimuli/Hand labour tool & accessory.png,stimuli/Outdoor activity & sport item.png,,Electronic device & accessory,1,1,stimuli/objects/jack.jpg,,,,,,,,,1,1,1.4686,0,27,27,27,1,1
,,,,,,,,,,,,,,3,603301,2021-12-27_13h21.56.108,MemLear_ses-01_part-01_label-phase1,2020.1.3,Win32,60,,,,,,,,,,,stimuli/m_orange.jpg,stimuli/Kitchen & utensil.png,stimuli/Electronic device & accessory.png,stimuli/Hand labour tool & accessory.png,stimuli/Outdoor activity & sport item.png,,Electronic device & accessory,2,1,stimuli/objects/fanheater.jpg,,,,,,,,,1,0,0.8009,0,28,28,28,1,1
,,,,,,,,,,,,,,3,603301,2021-12-27_13h21.56.108,MemLear_ses-01_part-01_label-phase1,2020.1.3,Win32,60,,,,,,,,,,,stimuli/m_black.jpg,stimuli/Outdoor activity & sport item.png,stimuli/Hand labour tool & accessory.png,stimuli/Electronic device & accessory.png,stimuli/Kitchen & utensil.png,,Outdoor activity & sport item,1,0,stimuli/objects/umbrella04.jpg,,,,,,,,,3,0,3.4463,0,29,29,29,1,0
,,,,,,,,,,,,,,3,603301,2021-12-27_13h21.56.108,MemLear_ses-01_part-01_label-phase1,2020.1.3,Win32,60,,,,,,,,,,,stimuli/m_black.jpg,stimuli/Kitchen & utensil.png,stimuli/Outdoor activity & sport item.png,stimuli/Electronic device & accessory.png,stimuli/Hand labour tool & accessory.png,,Kitchen & utensil,1,1,stimuli/objects/spicerack.jpg,,,,,,,,,1,1,2.6951,0,30,30,30,1,0
,,,,,,,,,,,,,,3,603301,2021-12-27_13h21.56.108,MemLear_ses-01_part-01_label-phase1,2020.1.3,Win32,60,,,,,,,,,,,stimuli/m_orange.jpg,stimuli/Kitchen & utensil.png,stimuli/Electronic device & accessory.png,stimuli/Hand labour tool & accessory.png,stimuli/Outdoor activity & sport item.png,,Electronic device & accessory,2,1,stimuli/objects/crocodileclips.jpg,,,,,,,,,2,1,1.9063,0,31,31,31,1,1
,,,,,,,,,,,,,,3,603301,2021-12-27_13h21.56.108,MemLear_ses-01_part-01_label-phase1,2020.1.3,Win32,60,,,,,,,,,,,stimuli/m_orange.jpg,stimuli/Electronic device & accessory.png,stimuli/Hand labour tool & accessory.png,stimuli/Kitchen & utensil.png,stimuli/Outdoor activity & sport item.png,,Kitchen & utensil,3,0,stimuli/objects/minifridge.jpg,,,,,,,,,1,0,1.8001,0,32,32,32,1,1
,,,,,,,,,,,,,,3,603301,2021-12-27_13h21.56.108,MemLear_ses-01_part-01_label-phase1,2020.1.3,Win32,60,,,,,,,,,,,stimuli/m_orange.jpg,stimuli/Outdoor activity & sport item.png,stimuli/Electronic device & accessory.png,stimuli/Kitchen & utensil.png,stimuli/Hand labour tool & accessory.png,,Electronic device & accessory,2,1,stimuli/objects/heatpump.jpg,,,,,,,,,2,1,1.5609,0,33,33,33,1,1
,,,,,,,,,,,,,,3,603301,2021-12-27_13h21.56.108,MemLear_ses-01_part-01_label-phase1,2020.1.3,Win32,60,,,,,,,,,,,stimuli/m_black.jpg,stimuli/Hand labour tool & accessory.png,stimuli/Kitchen & utensil.png,stimuli/Outdoor activity & sport item.png,stimuli/Electronic device & accessory.png,,Kitchen & utensil,2,1,stimuli/objects/funnel.jpg,,,,,,,,,2,1,1.274,0,34,34,34,1,0
,,,,,,,,,,,,,,3,603301,2021-12-27_13h21.56.108,MemLear_ses-01_part-01_label-phase1,2020.1.3,Win32,60,,,,,,,,,,,stimuli/m_orange.jpg,stimuli/Outdoor activity & sport item.png,stimuli/Kitchen & utensil.png,stimuli/Electronic device & accessory.png,stimuli/Hand labour tool & accessory.png,,Electronic device & accessory,3,1,stimuli/objects/lightswitch01.jpg,,,,,,,,,3,1,0.6578,0,35,35,35,1,1
,,,,,,,,,,,,,,3,603301,2021-12-27_13h21.56.108,MemLear_ses-01_part-01_label-phase1,2020.1.3,Win32,60,,,,,,,,,,,stimuli/m_orange.jpg,stimuli/Outdoor activity & sport item.png,stimuli/Kitchen & utensil.png,stimuli/Hand labour tool & accessory.png,stimuli/Electronic device & accessory.png,,Outdoor activity & sport item,1,0,stimuli/objects/snowshoe.jpg,,,,,,,,,3,0,1.5397,0,36,36,36,1,1
,,,,,,,,,,,,,,3,603301,2021-12-27_13h21.56.108,MemLear_ses-01_part-01_label-phase1,2020.1.3,Win32,60,,,,,,,,,,,stimuli/m_black.jpg,stimuli/Outdoor activity & sport item.png,stimuli/Kitchen & utensil.png,stimuli/Electronic device & accessory.png,stimuli/Hand labour tool & accessory.png,,Kitchen & utensil,2,1,stimuli/objects/shotglass.jpg,,,,,,,,,2,1,3.3027,0,37,37,37,1,0
,,,,,,,,,,,,,,3,603301,2021-12-27_13h21.56.108,MemLear_ses-01_part-01_label-phase1,2020.1.3,Win32,60,,,,,,,,,,,stimuli/m_orange.jpg,stimuli/Electronic device & accessory.png,stimuli/Hand labour tool & accessory.png,stimuli/Kitchen & utensil.png,stimuli/Outdoor activity & sport item.png,,Kitchen & utensil,3,0,stimuli/objects/cookingpot.jpg,,,,,,,,,1,0,1.8702,0,38,38,38,1,1
,,,,,,,,,,,,,,3,603301,2021-12-27_13h21.56.108,MemLear_ses-01_part-01_label-phase1,2020.1.3,Win32,60,,,,,,,,,,,stimuli/m_black.jpg,stimuli/Hand labour tool & accessory.png,stimuli/Outdoor activity & sport item.png,stimuli/Kitchen & utensil.png,stimuli/Electronic device & accessory.png,,Kitchen & utensil,3,1,stimuli/objects/pitcher02b.jpg,,,,,,,,,4,0,2.4585,0,39,39,39,1,0
,,,,,,,,,,,,,,3,603301,2021-12-27_13h21.56.108,MemLear_ses-01_part-01_label-phase1,2020.1.3,Win32,60,,,,,,,,,,,stimuli/m_black.jpg,stimuli/Electronic device & accessory.png,stimuli/Outdoor activity & sport item.png,stimuli/Kitchen & utensil.png,stimuli/Hand labour tool & accessory.png,,Electronic device & accessory,1,0,stimuli/objects/wiicontroller.jpg,,,,,,,,,3,0,2.6409,0,40,40,40,1,0
,,,,,,,,,,,,,,3,603301,2021-12-27_13h21.56.108,MemLear_ses-01_part-01_label-phase1,2020.1.3,Win32,60,,,,,,,,,,,stimuli/m_black.jpg,stimuli/Hand labour tool & accessory.png,stimuli/Electronic device & accessory.png,stimuli/Outdoor activity & sport item.png,stimuli/Kitchen & utensil.png,,Hand labour tool & accessory,1,0,stimuli/objects/knifesharpener.jpg,,,,,,,,,4,0,1.7615,0,41,41,41,1,0
,,,,,,,,,,,,,,3,603301,2021-12-27_13h21.56.108,MemLear_ses-01_part-01_label-phase1,2020.1.3,Win32,60,,,,,,,,,,,stimuli/m_black.jpg,stimuli/Electronic device & accessory.png,stimuli/Outdoor activity & sport item.png,stimuli/Kitchen & utensil.png,stimuli/Hand labour tool & accessory.png,,Kitchen & utensil,3,1,stimuli/objects/peeler01.jpg,,,,,,,,,1,0,2.6508,0,42,42,42,1,0
,,,,,,,,,,,,,,3,603301,2021-12-27_13h21.56.108,MemLear_ses-01_part-01_label-phase1,2020.1.3,Win32,60,,,,,,,,,,,stimuli/m_black.jpg,stimuli/Electronic device & accessory.png,stimuli/Kitchen & utensil.png,stimuli/Hand labour tool & accessory.png,stimuli/Outdoor activity & sport item.png,,Kitchen & utensil,2,1,stimuli/objects/pot01.jpg,,,,,,,,,1,0,1.6865,0,43,43,43,1,0
,,,,,,,,,,,,,,3,603301,2021-12-27_13h21.56.108,MemLear_ses-01_part-01_label-phase1,2020.1.3,Win32,60,,,,,,,,,,,stimuli/m_black.jpg,stimuli/Electronic device & accessory.png,stimuli/Kitchen & utensil.png,stimuli/Outdoor activity & sport item.png,stimuli/Hand labour tool & accessory.png,,Kitchen & utensil,2,1,stimuli/objects/coffeemaker.jpg,,,,,,,,,1,0,2.0073,0,44,44,44,1,0
,,,,,,,,,,,,,,3,603301,2021-12-27_13h21.56.108,MemLear_ses-01_part-01_label-phase1,2020.1.3,Win32,60,,,,,,,,,,,stimuli/m_black.jpg,stimuli/Kitchen & utensil.png,stimuli/Electronic device & accessory.png,stimuli/Outdoor activity & sport item.png,stimuli/Hand labour tool & accessory.png,,Kitchen & utensil,1,1,stimuli/objects/spatula04.jpg,,,,,,,,,1,1,1.8839,0,45,45,45,1,0
,,,,,,,,,,,,,,3,603301,2021-12-27_13h21.56.108,MemLear_ses-01_part-01_label-phase1,2020.1.3,Win32,60,,,,,,,,,,,stimuli/m_orange.jpg,stimuli/Outdoor activity & sport item.png,stimuli/Electronic device & accessory.png,stimuli/Kitchen & utensil.png,stimuli/Hand labour tool & accessory.png,,Electronic device & accessory,2,1,stimuli/objects/lightbulb01.jpg,,,,,,,,,2,1,1.2467,0,46,46,46,1,1
,,,,,,,,,,,,,,3,603301,2021-12-27_13h21.56.108,MemLear_ses-01_part-01_label-phase1,2020.1.3,Win32,60,,,,,,,,,,,stimuli/m_black.jpg,stimuli/Electronic device & accessory.png,stimuli/Kitchen & utensil.png,stimuli/Hand labour tool & accessory.png,stimuli/Outdoor activity & sport item.png,,Kitchen & utensil,2,1,stimuli/objects/cakeplatter.jpg,,,,,,,,,2,1,1.5959,0,47,47,47,1,0
,,,,,,,,,,,,,,3,603301,2021-12-27_13h21.56.108,MemLear_ses-01_part-01_label-phase1,2020.1.3,Win32,60,,,,,,,,,,,stimuli/m_orange.jpg,stimuli/Kitchen & utensil.png,stimuli/Electronic device & accessory.png,stimuli/Hand labour tool & accessory.png,stimuli/Outdoor activity & sport item.png,,Electronic device & accessory,2,1,stimuli/objects/alarmsystem.jpg,,,,,,,,,2,1,1.1821,0,48,48,48,1,1
,,,,,,,,,,,,,,3,603301,2021-12-27_13h21.56.108,MemLear_ses-01_part-01_label-phase1,2020.1.3,Win32,60,,,,,,,,,,,stimuli/m_orange.jpg,stimuli/Outdoor activity & sport item.png,stimuli/Electronic device & accessory.png,stimuli/Hand labour tool & accessory.png,stimuli/Kitchen & utensil.png,,Hand labour tool & accessory,3,0,stimuli/objects/boltcutter.jpg,,,,,,,,,2,0,1.2332,0,49,49,49,1,1
,,,,,,,,,,,,,,3,603301,2021-12-27_13h21.56.108,MemLear_ses-01_part-01_label-phase1,2020.1.3,Win32,60,,,,,,,,,,,stimuli/m_black.jpg,stimuli/Electronic device & accessory.png,stimuli/Hand labour tool & accessory.png,stimuli/Kitchen & utensil.png,stimuli/Outdoor activity & sport item.png,,Electronic device & accessory,1,0,stimuli/objects/audiocablesplitter.jpg,,,,,,,,,2,0,1.5148,0,50,50,50,1,0
,,,,,,,,,,,,,,3,603301,2021-12-27_13h21.56.108,MemLear_ses-01_part-01_label-phase1,2020.1.3,Win32,60,,,,,,,,,,,stimuli/m_orange.jpg,stimuli/Kitchen & utensil.png,stimuli/Outdoor activity & sport item.png,stimuli/Electronic device & accessory.png,stimuli/Hand labour tool & accessory.png,,Electronic device & accessory,3,1,stimuli/objects/ipod.jpg,,,,,,,,,3,1,3.035,0,51,51,51,1,1
,,,,,,,,,,,,,,3,603301,2021-12-27_13h21.56.108,MemLear_ses-01_part-01_label-phase1,2020.1.3,Win32,60,,,,,,,,,,,stimuli/m_orange.jpg,stimuli/Outdoor activity & sport item.png,stimuli/Electronic device & accessory.png,stimuli/Hand labour tool & accessory.png,stimuli/Kitchen & utensil.png,,Electronic device & accessory,2,1,stimuli/objects/radio01.jpg,,,,,,,,,2,1,0.8117,0,52,52,52,1,1
,,,,,,,,,,,,,,3,603301,2021-12-27_13h21.56.108,MemLear_ses-01_part-01_label-phase1,2020.1.3,Win32,60,,,,,,,,,,,stimuli/m_orange.jpg,stimuli/Electronic device & accessory.png,stimuli/Outdoor activity & sport item.png,stimuli/Hand labour tool & accessory.png,stimuli/Kitchen & utensil.png,,Electronic device & accessory,1,1,stimuli/objects/telephone01b.jpg,,,,,,,,,1,1,1.0641,0,53,53,53,1,1
,,,,,,,,,,,,,,3,603301,2021-12-27_13h21.56.108,MemLear_ses-01_part-01_label-phase1,2020.1.3,Win32,60,,,,,,,,,,,stimuli/m_black.jpg,stimuli/Kitchen & utensil.png,stimuli/Outdoor activity & sport item.png,stimuli/Hand labour tool & accessory.png,stimuli/Electronic device & accessory.png,,Kitchen & utensil,1,1,stimuli/objects/knife03.jpg,,,,,,,,,2,0,1.9869,0,54,54,54,1,0
,,,,,,,,,,,,,,3,603301,2021-12-27_13h21.56.108,MemLear_ses-01_part-01_label-phase1,2020.1.3,Win32,60,,,,,,,,,,,stimuli/m_black.jpg,stimuli/Kitchen & utensil.png,stimuli/Electronic device & accessory.png,stimuli/Hand labour tool & accessory.png,stimuli/Outdoor activity & sport item.png,,Kitchen & utensil,1,1,stimuli/objects/spatula03.jpg,,,,,,,,,1,1,1.1641,0,55,55,55,1,0
,,,,,,,,,,,,,,3,603301,2021-12-27_13h21.56.108,MemLear_ses-01_part-01_label-phase1,2020.1.3,Win32,60,,,,,,,,,,,stimuli/m_orange.jpg,stimuli/Kitchen & utensil.png,stimuli/Hand labour tool & accessory.png,stimuli/Outdoor activity & sport item.png,stimuli/Electronic device & accessory.png,,Electronic device & accessory,4,1,stimuli/objects/nintendods.jpg,,,,,,,,,4,1,1.0986,0,56,56,56,1,1
,,,,,,,,,,,,,,3,603301,2021-12-27_13h21.56.108,MemLear_ses-01_part-01_label-phase1,2020.1.3,Win32,60,,,,,,,,,,,stimuli/m_black.jpg,stimuli/Hand labour tool & accessory.png,stimuli/Kitchen & utensil.png,stimuli/Electronic device & accessory.png,stimuli/Outdoor activity & sport item.png,,Electronic device & accessory,3,0,stimuli/objects/avcable.jpg,,,,,,,,,3,1,2.7955,0,57,57,57,1,0
,,,,,,,,,,,,,,3,603301,2021-12-27_13h21.56.108,MemLear_ses-01_part-01_label-phase1,2020.1.3,Win32,60,,,,,,,,,,,stimuli/m_black.jpg,stimuli/Electronic device & accessory.png,stimuli/Hand labour tool & accessory.png,stimuli/Outdoor activity & sport item.png,stimuli/Kitchen & utensil.png,,Kitchen & utensil,4,1,stimuli/objects/chocolatefonduedish.jpg,,,,,,,,,1,0,1.3983,0,58,58,58,1,0
,,,,,,,,,,,,,,3,603301,2021-12-27_13h21.56.108,MemLear_ses-01_part-01_label-phase1,2020.1.3,Win32,60,,,,,,,,,,,stimuli/m_orange.jpg,stimuli/Electronic device & accessory.png,stimuli/Kitchen & utensil.png,stimuli/Outdoor activity & sport item.png,stimuli/Hand labour tool & accessory.png,,Electronic device & accessory,1,1,stimuli/objects/walkietalkie.jpg,,,,,,,,,1,1,1.1757,0,59,59,59,1,1
,,,,,,,,,,,,,,3,603301,2021-12-27_13h21.56.108,MemLear_ses-01_part-01_label-phase1,2020.1.3,Win32,60,,,,,,,,,,,stimuli/m_orange.jpg,stimuli/Outdoor activity & sport item.png,stimuli/Hand labour tool & accessory.png,stimuli/Electronic device & accessory.png,stimuli/Kitchen & utensil.png,,Electronic device & accessory,3,1,stimuli/objects/djmixer02.jpg,,,,,,,,,3,1,0.789,0,60,60,60,1,1
,,,,,,,,,,,,,,3,603301,2021-12-27_13h21.56.108,MemLear_ses-01_part-01_label-phase1,2020.1.3,Win32,60,,,,,,,,,,,stimuli/m_black.jpg,stimuli/Kitchen & utensil.png,stimuli/Hand labour tool & accessory.png,stimuli/Outdoor activity & sport item.png,stimuli/Electronic device & accessory.png,,Kitchen & utensil,1,1,stimuli/objects/grill.jpg,,,,,,,,,1,1,0.6716,0,61,61,61,1,0
,,,,,,,,,,,,,,3,603301,2021-12-27_13h21.56.108,MemLear_ses-01_part-01_label-phase1,2020.1.3,Win32,60,,,,,,,,,,,stimuli/m_orange.jpg,stimuli/Electronic device & accessory.png,stimuli/Hand labour tool & accessory.png,stimuli/Kitchen & utensil.png,stimuli/Outdoor activity & sport item.png,,Electronic device & accessory,1,1,stimuli/objects/battery02b.jpg,,,,,,,,,1,1,1.0753,0,62,62,62,1,1
,,,,,,,,,,,,,,3,603301,2021-12-27_13h21.56.108,MemLear_ses-01_part-01_label-phase1,2020.1.3,Win32,60,,,,,,,,,,,stimuli/m_orange.jpg,stimuli/Electronic device & accessory.png,stimuli/Hand labour tool & accessory.png,stimuli/Outdoor activity & sport item.png,stimuli/Kitchen & utensil.png,,Electronic device & accessory,1,1,stimuli/objects/taperecorder.jpg,,,,,,,,,1,1,1.7803,0,63,63,63,1,1
,,,,,,,,,,,,,,3,603301,2021-12-27_13h21.56.108,MemLear_ses-01_part-01_label-phase1,2020.1.3,Win32,60,,,,,,,,,,,stimuli/m_orange.jpg,stimuli/Hand labour tool & accessory.png,stimuli/Outdoor activity & sport item.png,stimuli/Kitchen & utensil.png,stimuli/Electronic device & accessory.png,,Electronic device & accessory,4,1,stimuli/objects/carantenna.jpg,,,,,,,,,4,1,1.1696,0,64,64,64,1,1
,,,,,,,,,,,,,,3,603301,2021-12-27_13h21.56.108,MemLear_ses-01_part-01_label-phase1,2020.1.3,Win32,60,,,,,,,,,,,stimuli/m_orange.jpg,stimuli/Hand labour tool & accessory.png,stimuli/Outdoor activity & sport item.png,stimuli/Electronic device & accessory.png,stimuli/Kitchen & utensil.png,,Electronic device & accessory,3,1,stimuli/objects/lectern01.jpg,,,,,,,,,3,1,1.339,0,65,65,65,1,1
,,,,,,,,,,,,,,3,603301,2021-12-27_13h21.56.108,MemLear_ses-01_part-01_label-phase1,2020.1.3,Win32,60,,,,,,,,,,,stimuli/m_black.jpg,stimuli/Kitchen & utensil.png,stimuli/Electronic device & accessory.png,stimuli/Outdoor activity & sport item.png,stimuli/Hand labour tool & accessory.png,,Kitchen & utensil,1,1,stimuli/objects/ramekin01.jpg,,,,,,,,,1,1,1.0427,0,66,66,66,1,0
,,,,,,,,,,,,,,3,603301,2021-12-27_13h21.56.108,MemLear_ses-01_part-01_label-phase1,2020.1.3,Win32,60,,,,,,,,,,,stimuli/m_orange.jpg,stimuli/Hand labour tool & accessory.png,stimuli/Kitchen & utensil.png,stimuli/Outdoor activity & sport item.png,stimuli/Electronic device & accessory.png,,Electronic device & accessory,4,1,stimuli/objects/videocamera01a.jpg,,,,,,,,,4,1,1.1075,0,67,67,67,1,1
,,,,,,,,,,,,,,3,603301,2021-12-27_13h21.56.108,MemLear_ses-01_part-01_label-phase1,2020.1.3,Win32,60,,,,,,,,,,,stimuli/m_orange.jpg,stimuli/Outdoor activity & sport item.png,stimuli/Hand labour tool & accessory.png,stimuli/Kitchen & utensil.png,stimuli/Electronic device & accessory.png,,Outdoor activity & sport item,1,0,stimuli/objects/kneepad01c.jpg,,,,,,,,,4,0,1.3126,0,68,68,68,1,1
,,,,,,,,,,,,,,3,603301,2021-12-27_13h21.56.108,MemLear_ses-01_part-01_label-phase1,2020.1.3,Win32,60,,,,,,,,,,,stimuli/m_black.jpg,stimuli/Hand labour tool & accessory.png,stimuli/Kitchen & utensil.png,stimuli/Electronic device & accessory.png,stimuli/Outdoor activity & sport item.png,,Kitchen & utensil,2,1,stimuli/objects/coffeepot03a.jpg,,,,,,,,,2,1,1.8995,0,69,69,69,1,0
,,,,,,,,,,,,,,3,603301,2021-12-27_13h21.56.108,MemLear_ses-01_part-01_label-phase1,2020.1.3,Win32,60,,,,,,,,,,,stimuli/m_black.jpg,stimuli/Hand labour tool & accessory.png,stimuli/Outdoor activity & sport item.png,stimuli/Electronic device & accessory.png,stimuli/Kitchen & utensil.png,,Kitchen & utensil,4,1,stimuli/objects/cuttingboard.jpg,,,,,,,,,4,1,1.2672,0,70,70,70,1,0
,,,,,,,,,,,,,,3,603301,2021-12-27_13h21.56.108,MemLear_ses-01_part-01_label-phase1,2020.1.3,Win32,60,,,,,,,,,,,stimuli/m_orange.jpg,stimuli/Hand labour tool & accessory.png,stimuli/Electronic device & accessory.png,stimuli/Kitchen & utensil.png,stimuli/Outdoor activity & sport item.png,,Outdoor activity & sport item,4,0,stimuli/objects/podium.jpg,,,,,,,,,2,0,2.0808,0,71,71,71,1,1
,,,,,,,,,,,,,,3,603301,2021-12-27_13h21.56.108,MemLear_ses-01_part-01_label-phase1,2020.1.3,Win32,60,,,,,,,,,,,stimuli/m_black.jpg,stimuli/Outdoor activity & sport item.png,stimuli/Hand labour tool & accessory.png,stimuli/Electronic device & accessory.png,stimuli/Kitchen & utensil.png,,Kitchen & utensil,4,1,stimuli/objects/saltshaker03a.jpg,,,,,,,,,4,1,1.2654,0,72,72,72,1,0
,,,,,,,,,,,,,,3,603301,2021-12-27_13h21.56.108,MemLear_ses-01_part-01_label-phase1,2020.1.3,Win32,60,,,,,,,,,,,stimuli/m_black.jpg,stimuli/Hand labour tool & accessory.png,stimuli/Outdoor activity & sport item.png,stimuli/Kitchen & utensil.png,stimuli/Electronic device & accessory.png,,Electronic device & accessory,4,0,stimuli/objects/faxmachine.jpg,,,,,,,,,4,1,2.3557,0,73,73,73,1,0
,,,,,,,,,,,,,,3,603301,2021-12-27_13h21.56.108,MemLear_ses-01_part-01_label-phase1,2020.1.3,Win32,60,,,,,,,,,,,stimuli/m_orange.jpg,stimuli/Hand labour tool & accessory.png,stimuli/Outdoor activity & sport item.png,stimuli/Electronic device & accessory.png,stimuli/Kitchen & utensil.png,,Electronic device & accessory,3,1,stimuli/objects/cashregister01.jpg,,,,,,,,,3,1,2.6238,0,74,74,74,1,1
,,,,,,,,,,,,,,3,603301,2021-12-27_13h21.56.108,MemLear_ses-01_part-01_label-phase1,2020.1.3,Win32,60,,,,,,,,,,,stimuli/m_orange.jpg,stimuli/Electronic device & accessory.png,stimuli/Kitchen & utensil.png,stimuli/Hand labour tool & accessory.png,stimuli/Outdoor activity & sport item.png,,Electronic device & accessory,1,1,stimuli/objects/coffeemachine.jpg,,,,,,,,,1,1,1.8554,0,75,75,75,1,1
,,,,,,,,,,,,,,3,603301,2021-12-27_13h21.56.108,MemLear_ses-01_part-01_label-phase1,2020.1.3,Win32,60,,,,,,,,,,,stimuli/m_black.jpg,stimuli/Hand labour tool & accessory.png,stimuli/Kitchen & utensil.png,stimuli/Outdoor activity & sport item.png,stimuli/Electronic device & accessory.png,,Kitchen & utensil,2,1,stimuli/objects/fork03c.jpg,,,,,,,,,2,1,1.2731,0,76,76,76,1,0
,,,,,,,,,,,,,,3,603301,2021-12-27_13h21.56.108,MemLear_ses-01_part-01_label-phase1,2020.1.3,Win32,60,,,,,,,,,,,stimuli/m_orange.jpg,stimuli/Hand labour tool & accessory.png,stimuli/Electronic device & accessory.png,stimuli/Outdoor activity & sport item.png,stimuli/Kitchen & utensil.png,,Electronic device & accessory,2,1,stimuli/objects/chandelier.jpg,,,,,,,,,4,0,1.7598,0,77,77,77,1,1
,,,,,,,,,,,,,,3,603301,2021-12-27_13h21.56.108,MemLear_ses-01_part-01_label-phase1,2020.1.3,Win32,60,,,,,,,,,,,stimuli/m_black.jpg,stimuli/Kitchen & utensil.png,stimuli/Outdoor activity & sport item.png,stimuli/Hand labour tool & accessory.png,stimuli/Electronic device & accessory.png,,Kitchen & utensil,1,1,stimuli/objects/bottlecap.jpg,,,,,,,,,4,0,2.9968,0,78,78,78,1,0
,,,,,,,,,,,,,,3,603301,2021-12-27_13h21.56.108,MemLear_ses-01_part-01_label-phase1,2020.1.3,Win32,60,,,,,,,,,,,stimuli/m_orange.jpg,stimuli/Outdoor activity & sport item.png,stimuli/Electronic device & accessory.png,stimuli/Hand labour tool & accessory.png,stimuli/Kitchen & utensil.png,,Electronic device & accessory,2,1,stimuli/objects/powercable.jpg,,,,,,,,,2,1,2.201,0,79,79,79,1,1
,,,,,,,,,,,,,,3,603301,2021-12-27_13h21.56.108,MemLear_ses-01_part-01_label-phase1,2020.1.3,Win32,60,,,,,,,,,,,stimuli/m_orange.jpg,stimuli/Outdoor activity & sport item.png,stimuli/Kitchen & utensil.png,stimuli/Electronic device & accessory.png,stimuli/Hand labour tool & accessory.png,,Outdoor activity & sport item,1,0,stimuli/objects/beachumbrella01.jpg,,,,,,,,,4,0,1.1649,0,80,80,80,1,1
,,,,,,,,,,,,,,3,603301,2021-12-27_13h21.56.108,MemLear_ses-01_part-01_label-phase1,2020.1.3,Win32,60,,,,,,,,,,,stimuli/m_black.jpg,stimuli/Outdoor activity & sport item.png,stimuli/Electronic device & accessory.png,stimuli/Hand labour tool & accessory.png,stimuli/Kitchen & utensil.png,,Kitchen & utensil,4,1,stimuli/objects/potatomasher03b.jpg,,,,,,,,,4,1,1.3181,0,81,81,81,1,0
,,,,,,,,,,,,,,3,603301,2021-12-27_13h21.56.108,MemLear_ses-01_part-01_label-phase1,2020.1.3,Win32,60,,,,,,,,,,,stimuli/m_orange.jpg,stimuli/Hand labour tool & accessory.png,stimuli/Kitchen & utensil.png,stimuli/Electronic device & accessory.png,stimuli/Outdoor activity & sport item.png,,Electronic device & accessory,3,1,stimuli/objects/walkman.jpg,,,,,,,,,2,0,1.1257,0,82,82,82,1,1
,,,,,,,,,,,,,,3,603301,2021-12-27_13h21.56.108,MemLear_ses-01_part-01_label-phase1,2020.1.3,Win32,60,,,,,,,,,,,stimuli/m_orange.jpg,stimuli/Kitchen & utensil.png,stimuli/Outdoor activity & sport item.png,stimuli/Hand labour tool & accessory.png,stimuli/Electronic device & accessory.png,,Electronic device & accessory,4,1,stimuli/objects/gps.jpg,,,,,,,,,4,1,1.256,0,83,83,83,1,1
,,,,,,,,,,,,,,3,603301,2021-12-27_13h21.56.108,MemLear_ses-01_part-01_label-phase1,2020.1.3,Win32,60,,,,,,,,,,,stimuli/m_black.jpg,stimuli/Outdoor activity & sport item.png,stimuli/Electronic device & accessory.png,stimuli/Hand labour tool & accessory.png,stimuli/Kitchen & utensil.png,,Kitchen & utensil,4,1,stimuli/objects/handmixer01d.jpg,,,,,,,,,4,1,1.2175,0,84,84,84,1,0
,,,,,,,,,,,,,,3,603301,2021-12-27_13h21.56.108,MemLear_ses-01_part-01_label-phase1,2020.1.3,Win32,60,,,,,,,,,,,stimuli/m_black.jpg,stimuli/Outdoor activity & sport item.png,stimuli/Kitchen & utensil.png,stimuli/Electronic device & accessory.png,stimuli/Hand labour tool & accessory.png,,Outdoor activity & sport item,1,0,stimuli/objects/charcoalbarbecue.jpg,,,,,,,,,2,0,1.9228,0,85,85,85,1,0
,,,,,,,,,,,,,,3,603301,2021-12-27_13h21.56.108,MemLear_ses-01_part-01_label-phase1,2020.1.3,Win32,60,,,,,,,,,,,stimuli/m_black.jpg,stimuli/Electronic device & accessory.png,stimuli/Hand labour tool & accessory.png,stimuli/Outdoor activity & sport item.png,stimuli/Kitchen & utensil.png,,Outdoor activity & sport item,3,0,stimuli/objects/bikepump01.jpg,,,,,,,,,4,0,2.1519,0,86,86,86,1,0
,,,,,,,,,,,,,,3,603301,2021-12-27_13h21.56.108,MemLear_ses-01_part-01_label-phase1,2020.1.3,Win32,60,,,,,,,,,,,stimuli/m_orange.jpg,stimuli/Electronic device & accessory.png,stimuli/Outdoor activity & sport item.png,stimuli/Hand labour tool & accessory.png,stimuli/Kitchen & utensil.png,,Electronic device & accessory,1,1,stimuli/objects/extensioncord.jpg,,,,,,,,,1,1,1.5761,0,87,87,87,1,1
,,,,,,,,,,,,,,3,603301,2021-12-27_13h21.56.108,MemLear_ses-01_part-01_label-phase1,2020.1.3,Win32,60,,,,,,,,,,,stimuli/m_orange.jpg,stimuli/Hand labour tool & accessory.png,stimuli/Kitchen & utensil.png,stimuli/Electronic device & accessory.png,stimuli/Outdoor activity & sport item.png,,Kitchen & utensil,2,0,stimuli/objects/fridge.jpg,,,,,,,,,3,0,1.8815,0,88,88,88,1,1
,,,,,,,,,,,,,,3,603301,2021-12-27_13h21.56.108,MemLear_ses-01_part-01_label-phase1,2020.1.3,Win32,60,,,,,,,,,,,stimuli/m_black.jpg,stimuli/Kitchen & utensil.png,stimuli/Hand labour tool & accessory.png,stimuli/Outdoor activity & sport item.png,stimuli/Electronic device & accessory.png,,Kitchen & utensil,1,1,stimuli/objects/martiniglass01b.jpg,,,,,,,,,1,1,1.0348,0,89,89,89,1,0
,,,,,,,,,,,,,,3,603301,2021-12-27_13h21.56.108,MemLear_ses-01_part-01_label-phase1,2020.1.3,Win32,60,,,,,,,,,,,stimuli/m_black.jpg,stimuli/Kitchen & utensil.png,stimuli/Hand labour tool & accessory.png,stimuli/Electronic device & accessory.png,stimuli/Outdoor activity & sport item.png,,Hand labour tool & accessory,2,0,stimuli/objects/lawnmower.jpg,,,,,,,,,1,0,0.671,0,90,90,90,1,0
,,,,,,,,,,,,,,3,603301,2021-12-27_13h21.56.108,MemLear_ses-01_part-01_label-phase1,2020.1.3,Win32,60,,,,,,,,,,,stimuli/m_orange.jpg,stimuli/Electronic device & accessory.png,stimuli/Hand labour tool & accessory.png,stimuli/Outdoor activity & sport item.png,stimuli/Kitchen & utensil.png,,Electronic device & accessory,1,1,stimuli/objects/carlighter02.jpg,,,,,,,,,1,1,1.6105,0,91,91,91,1,1
,,,,,,,,,,,,,,3,603301,2021-12-27_13h21.56.108,MemLear_ses-01_part-01_label-phase1,2020.1.3,Win32,60,,,,,,,,,,,stimuli/m_black.jpg,stimuli/Outdoor activity & sport item.png,stimuli/Electronic device & accessory.png,stimuli/Hand labour tool & accessory.png,stimuli/Kitchen & utensil.png,,Hand labour tool & accessory,3,0,stimuli/objects/caulking.jpg,,,,,,,,,4,0,1.0772,0,92,92,92,1,0
,,,,,,,,,,,,,,3,603301,2021-12-27_13h21.56.108,MemLear_ses-01_part-01_label-phase1,2020.1.3,Win32,60,,,,,,,,,,,stimuli/m_black.jpg,stimuli/Hand labour tool & accessory.png,stimuli/Electronic device & accessory.png,stimuli/Kitchen & utensil.png,stimuli/Outdoor activity & sport item.png,,Hand labour tool & accessory,1,0,stimuli/objects/wateringcan.jpg,,,,,,,,,3,0,2.042,0,93,93,93,1,0
,,,,,,,,,,,,,,3,603301,2021-12-27_13h21.56.108,MemLear_ses-01_part-01_label-phase1,2020.1.3,Win32,60,,,,,,,,,,,stimuli/m_black.jpg,stimuli/Outdoor activity & sport item.png,stimuli/Electronic device & accessory.png,stimuli/Kitchen & utensil.png,stimuli/Hand labour tool & accessory.png,,Kitchen & utensil,3,1,stimuli/objects/whisk.jpg,,,,,,,,,2,0,2.8897,0,94,94,94,1,0
,,,,,,,,,,,,,,3,603301,2021-12-27_13h21.56.108,MemLear_ses-01_part-01_label-phase1,2020.1.3,Win32,60,,,,,,,,,,,stimuli/m_black.jpg,stimuli/Electronic device & accessory.png,stimuli/Kitchen & utensil.png,stimuli/Hand labour tool & accessory.png,stimuli/Outdoor activity & sport item.png,,Kitchen & utensil,2,1,stimuli/objects/breadknife.jpg,,,,,,,,,1,0,3.64,0,95,95,95,1,0
,,,,,,,,,,,,,,3,603301,2021-12-27_13h21.56.108,MemLear_ses-01_part-01_label-phase1,2020.1.3,Win32,60,,,,,,,,,,,stimuli/m_orange.jpg,stimuli/Electronic device & accessory.png,stimuli/Outdoor activity & sport item.png,stimuli/Kitchen & utensil.png,stimuli/Hand labour tool & accessory.png,,Electronic device & accessory,1,1,stimuli/objects/remotecontrol04.jpg,,,,,,,,,1,1,0.567,0,96,96,96,1,1
,,,,,,,,,,,,,,3,603301,2021-12-27_13h21.56.108,MemLear_ses-01_part-01_label-phase1,2020.1.3,Win32,60,,,,,,,,,,,stimuli/m_black.jpg,stimuli/Outdoor activity & sport item.png,stimuli/Kitchen & utensil.png,stimuli/Hand labour tool & accessory.png,stimuli/Electronic device & accessory.png,,Kitchen & utensil,2,1,stimuli/objects/icepack.jpg,,,,,,,,,4,0,2.299,0,97,97,97,1,0
,,,,,,,,,,,,,,3,603301,2021-12-27_13h21.56.108,MemLear_ses-01_part-01_label-phase1,2020.1.3,Win32,60,,,,,,,,,,,stimuli/m_black.jpg,stimuli/Kitchen & utensil.png,stimuli/Electronic device & accessory.png,stimuli/Hand labour tool & accessory.png,stimuli/Outdoor activity & sport item.png,,Kitchen & utensil,1,1,stimuli/objects/servingspoon01.jpg,,,,,,,,,1,1,2.332,0,98,98,98,1,0
,,,,,,,,,,,,,,3,603301,2021-12-27_13h21.56.108,MemLear_ses-01_part-01_label-phase1,2020.1.3,Win32,60,,,,,,,,,,,stimuli/m_orange.jpg,stimuli/Hand labour tool & accessory.png,stimuli/Electronic device & accessory.png,stimuli/Kitchen & utensil.png,stimuli/Outdoor activity & sport item.png,,Electronic device & accessory,2,1,stimuli/objects/payphone.jpg,,,,,,,,,2,1,1.3878,0,99,99,99,1,1
,,,,,,,,,,,,,,3,603301,2021-12-27_13h21.56.108,MemLear_ses-01_part-01_label-phase1,2020.1.3,Win32,60,,,,,,,,,,,stimuli/m_orange.jpg,stimuli/Kitchen & utensil.png,stimuli/Hand labour tool & accessory.png,stimuli/Electronic device & accessory.png,stimuli/Outdoor activity & sport item.png,,Hand labour tool & accessory,2,0,stimuli/objects/adjustablewrench01b.jpg,,,,,,,,,3,0,1.4254,0,100,100,100,1,1
,,,,,,,,,,,,,,3,603301,2021-12-27_13h21.56.108,MemLear_ses-01_part-01_label-phase1,2020.1.3,Win32,60,,,,,,,,,,,stimuli/m_orange.jpg,stimuli/Outdoor activity & sport item.png,stimuli/Hand labour tool & accessory.png,stimuli/Electronic device & accessory.png,stimuli/Kitchen & utensil.png,,Outdoor activity & sport item,1,0,stimuli/objects/golfbag.jpg,,,,,,,,,3,0,1.3981,0,101,101,101,1,1
,,,,,,,,,,,,,,3,603301,2021-12-27_13h21.56.108,MemLear_ses-01_part-01_label-phase1,2020.1.3,Win32,60,,,,,,,,,,,stimuli/m_orange.jpg,stimuli/Hand labour tool & accessory.png,stimuli/Outdoor activity & sport item.png,stimuli/Electronic device & accessory.png,stimuli/Kitchen & utensil.png,,Electronic device & accessory,3,1,stimuli/objects/filmroll.jpg,,,,,,,,,2,0,2.5068,0,102,102,102,1,1
,,,,,,,,,,,,,,3,603301,2021-12-27_13h21.56.108,MemLear_ses-01_part-01_label-phase1,2020.1.3,Win32,60,,,,,,,,,,,stimuli/m_black.jpg,stimuli/Hand labour tool & accessory.png,stimuli/Outdoor activity & sport item.png,stimuli/Electronic device & accessory.png,stimuli/Kitchen & utensil.png,,Kitchen & utensil,4,1,stimuli/objects/icebucket.jpg,,,,,,,,,4,1,2.0165,0,103,103,103,1,0
,,,,,,,,,,,,,,3,603301,2021-12-27_13h21.56.108,MemLear_ses-01_part-01_label-phase1,2020.1.3,Win32,60,,,,,,,,,,,stimuli/m_orange.jpg,stimuli/Hand labour tool & accessory.png,stimuli/Electronic device & accessory.png,stimuli/Outdoor activity & sport item.png,stimuli/Kitchen & utensil.png,,Hand labour tool & accessory,1,0,stimuli/objects/squeegee01b.jpg,,,,,,,,,2,0,1.8254,0,104,104,104,1,1
,,,,,,,,,,,,,,3,603301,2021-12-27_13h21.56.108,MemLear_ses-01_part-01_label-phase1,2020.1.3,Win32,60,,,,,,,,,,,stimuli/m_orange.jpg,stimuli/Hand labour tool & accessory.png,stimuli/Kitchen & utensil.png,stimuli/Outdoor activity & sport item.png,stimuli/Electronic device & accessory.png,,Electronic device & accessory,4,1,stimuli/objects/camera01a.jpg,,,,,,,,,4,1,0.8419,0,105,105,105,1,1
,,,,,,,,,,,,,,3,603301,2021-12-27_13h21.56.108,MemLear_ses-01_part-01_label-phase1,2020.1.3,Win32,60,,,,,,,,,,,stimuli/m_black.jpg,stimuli/Hand labour tool & accessory.png,stimuli/Electronic device & accessory.png,stimuli/Outdoor activity & sport item.png,stimuli/Kitchen & utensil.png,,Hand labour tool & accessory,1,0,stimuli/objects/cuttingpliers02.jpg,,,,,,,,,4,0,2.0576,0,106,106,106,1,0
,,,,,,,,,,,,,,3,603301,2021-12-27_13h21.56.108,MemLear_ses-01_part-01_label-phase1,2020.1.3,Win32,60,,,,,,,,,,,stimuli/m_black.jpg,stimuli/Hand labour tool & accessory.png,stimuli/Outdoor activity & sport item.png,stimuli/Electronic device & accessory.png,stimuli/Kitchen & utensil.png,,Kitchen & utensil,4,1,stimuli/objects/toasteroven.jpg,,,,,,,,,2,0,1.2726,0,107,107,107,1,0
,,,,,,,,,,,,,,3,603301,2021-12-27_13h21.56.108,MemLear_ses-01_part-01_label-phase1,2020.1.3,Win32,60,,,,,,,,,,,stimuli/m_orange.jpg,stimuli/Kitchen & utensil.png,stimuli/Outdoor activity & sport item.png,stimuli/Electronic device & accessory.png,stimuli/Hand labour tool & accessory.png,,Electronic device & accessory,3,1,stimuli/objects/soundmixer.jpg,,,,,,,,,3,1,1.819,0,108,108,108,1,1
,,,,,,,,,,,,,,3,603301,2021-12-27_13h21.56.108,MemLear_ses-01_part-01_label-phase1,2020.1.3,Win32,60,,,,,,,,,,,stimuli/m_black.jpg,stimuli/Kitchen & utensil.png,stimuli/Outdoor activity & sport item.png,stimuli/Electronic device & accessory.png,stimuli/Hand labour tool & accessory.png,,Hand labour tool & accessory,4,0,stimuli/objects/snowshovel.jpg,,,,,,,,,1,0,0.9876,0,109,109,109,1,0
,,,,,,,,,,,,,,3,603301,2021-12-27_13h21.56.108,MemLear_ses-01_part-01_label-phase1,2020.1.3,Win32,60,,,,,,,,,,,stimuli/m_orange.jpg,stimuli/Kitchen & utensil.png,stimuli/Electronic device & accessory.png,stimuli/Outdoor activity & sport item.png,stimuli/Hand labour tool & accessory.png,,Electronic device & accessory,2,1,stimuli/objects/desktopcomputer.jpg,,,,,,,,,2,1,2.2512,0,110,110,110,1,1
,,,,,,,,,,,,,,3,603301,2021-12-27_13h21.56.108,MemLear_ses-01_part-01_label-phase1,2020.1.3,Win32,60,,,,,,,,,,,stimuli/m_orange.jpg,stimuli/Kitchen & utensil.png,stimuli/Outdoor activity & sport item.png,stimuli/Electronic device & accessory.png,stimuli/Hand labour tool & accessory.png,,Hand labour tool & accessory,4,0,stimuli/objects/painttray.jpg,,,,,,,,,3,0,1.6995,0,111,111,111,1,1
,,,,,,,,,,,,,,3,603301,2021-12-27_13h21.56.108,MemLear_ses-01_part-01_label-phase1,2020.1.3,Win32,60,,,,,,,,,,,stimuli/m_black.jpg,stimuli/Outdoor activity & sport item.png,stimuli/Hand labour tool & accessory.png,stimuli/Kitchen & utensil.png,stimuli/Electronic device & accessory.png,,Kitchen & utensil,3,1,stimuli/objects/freezer02.jpg,,,,,,,,,1,0,2.6516,0,112,112,112,1,0
,,,,,,,,,,,,,,3,603301,2021-12-27_13h21.56.108,MemLear_ses-01_part-01_label-phase1,2020.1.3,Win32,60,,,,,,,,,,,stimuli/m_black.jpg,stimuli/Outdoor activity & sport item.png,stimuli/Hand labour tool & accessory.png,stimuli/Kitchen & utensil.png,stimuli/Electronic device & accessory.png,,Outdoor activity & sport item,1,0,stimuli/objects/swimgoggles.jpg,,,,,,,,,1,1,0.9496,0,113,113,113,1,0
,,,,,,,,,,,,,,3,603301,2021-12-27_13h21.56.108,MemLear_ses-01_part-01_label-phase1,2020.1.3,Win32,60,,,,,,,,,,,stimuli/m_black.jpg,stimuli/Kitchen & utensil.png,stimuli/Hand labour tool & accessory.png,stimuli/Electronic device & accessory.png,stimuli/Outdoor activity & sport item.png,,Electronic device & accessory,3,0,stimuli/objects/cameracase01a.jpg,,,,,,,,,4,0,2.4311,0,114,114,114,1,0
,,,,,,,,,,,,,,3,603301,2021-12-27_13h21.56.108,MemLear_ses-01_part-01_label-phase1,2020.1.3,Win32,60,,,,,,,,,,,stimuli/m_orange.jpg,stimuli/Electronic device & accessory.png,stimuli/Kitchen & utensil.png,stimuli/Hand labour tool & accessory.png,stimuli/Outdoor activity & sport item.png,,Electronic device & accessory,1,1,stimuli/objects/computerkeyboard02.jpg,,,,,,,,,2,0,0.9776,0,115,115,115,1,1
,,,,,,,,,,,,,,3,603301,2021-12-27_13h21.56.108,MemLear_ses-01_part-01_label-phase1,2020.1.3,Win32,60,,,,,,,,,,,stimuli/m_black.jpg,stimuli/Electronic device & accessory.png,stimuli/Outdoor activity & sport item.png,stimuli/Hand labour tool & accessory.png,stimuli/Kitchen & utensil.png,,Kitchen & utensil,4,1,stimuli/objects/waterbottle03.jpg,,,,,,,,,2,0,1.9431,0,116,116,116,1,0
,,,,,,,,,,,,,,3,603301,2021-12-27_13h21.56.108,MemLear_ses-01_part-01_label-phase1,2020.1.3,Win32,60,,,,,,,,,,,stimuli/m_orange.jpg,stimuli/Kitchen & utensil.png,stimuli/Hand labour tool & accessory.png,stimuli/Electronic device & accessory.png,stimuli/Outdoor activity & sport item.png,,Kitchen & utensil,1,0,stimuli/objects/oven.jpg,,,,,,,,,3,0,2.0755,0,117,117,117,1,1
,,,,,,,,,,,,,,3,603301,2021-12-27_13h21.56.108,MemLear_ses-01_part-01_label-phase1,2020.1.3,Win32,60,,,,,,,,,,,stimuli/m_black.jpg,stimuli/Hand labour tool & accessory.png,stimuli/Electronic device & accessory.png,stimuli/Kitchen & utensil.png,stimuli/Outdoor activity & sport item.png,,Outdoor activity & sport item,4,0,stimuli/objects/backpack01a.jpg,,,,,,,,,4,1,1.4779,0,118,118,118,1,0
,,,,,,,,,,,,,,3,603301,2021-12-27_13h21.56.108,MemLear_ses-01_part-01_label-phase1,2020.1.3,Win32,60,,,,,,,,,,,stimuli/m_black.jpg,stimuli/Outdoor activity & sport item.png,stimuli/Electronic device & accessory.png,stimuli/Kitchen & utensil.png,stimuli/Hand labour tool & accessory.png,,Kitchen & utensil,3,1,stimuli/objects/measuringspoon.jpg,,,,,,,,,1,0,3.4501,0,119,119,119,1,0
