instructions_loop.thisRepN,instructions_loop.thisTrialN,instructions_loop.thisN,instructions_loop.thisIndex,instructions_loop.ran,text1,text2,text3,participant,Expra Code,date,expName,psychopyVersion,OS,frameRate,recog_resp.keys,recog_resp.rt,conf_resp.keys,conf_resp.rt,recog_loop.thisRepN,recog_loop.thisTrialN,recog_loop.thisN,recog_loop.thisIndex,recog_loop.ran,images,modal_categ,type,corr_ans,order,key_resp_break.keys,key_resp_break.rt,list_loop.thisRepN,list_loop.thisTrialN,list_loop.thisN,list_loop.thisIndex,list_loop.ran,recog_list
0,0,0,0,1,Welcome to the last phase of this experiment!,.,Please press the space bar to continue,23,277170,2021-12-21_10h58.07.111,MemLear_ses-01_part-02_label-phase2,2020.1.3,MacIntel,60,,,,,,,,,,,,,,,,,,,,,,
0,1,1,1,1,.,"In this phase, you will see some objects. 

For each object, you should indicate whether you have seen it before during the experiment.

Press LEFT ARROW for YES
Press RIGHT ARROW for NO

",Please press the space bar to continue ,23,277170,2021-12-21_10h58.07.111,MemLear_ses-01_part-02_label-phase2,2020.1.3,MacIntel,60,,,,,,,,,,,,,,,,,,,,,,
,,,,,,,,23,277170,2021-12-21_10h58.07.111,MemLear_ses-01_part-02_label-phase2,2020.1.3,MacIntel,60,right,4.0292,3,4.4558,0,0,0,22,1,stimuli/objects/outletadapter.jpg,Electronic device & accessory,new,right,23,,,,,,,,
,,,,,,,,23,277170,2021-12-21_10h58.07.111,MemLear_ses-01_part-02_label-phase2,2020.1.3,MacIntel,60,left,2.0296,1,1.6869,0,1,1,11,1,stimuli/objects/usbcable01a.jpg,Electronic device & accessory,new,right,12,,,,,,,,
,,,,,,,,23,277170,2021-12-21_10h58.07.111,MemLear_ses-01_part-02_label-phase2,2020.1.3,MacIntel,60,left,1.2069,1,0.9351,0,2,2,51,1,stimuli/objects/photocopier.jpg,Electronic device & accessory,old,left,52,,,,,,,,
,,,,,,,,23,277170,2021-12-21_10h58.07.111,MemLear_ses-01_part-02_label-phase2,2020.1.3,MacIntel,60,left,1.1414,1,0.8288,0,3,3,30,1,stimuli/objects/cleaver01.jpg,Kitchen & utensil,old,left,31,,,,,,,,
,,,,,,,,23,277170,2021-12-21_10h58.07.111,MemLear_ses-01_part-02_label-phase2,2020.1.3,MacIntel,60,left,2.0955,1,0.8172,0,4,4,41,1,stimuli/objects/beachumbrella01.jpg,Outdoor activity & sport item,old,left,42,,,,,,,,
,,,,,,,,23,277170,2021-12-21_10h58.07.111,MemLear_ses-01_part-02_label-phase2,2020.1.3,MacIntel,60,left,0.9264,1,1.0312,0,5,5,49,1,stimuli/objects/usbkey.jpg,Electronic device & accessory,old,left,50,,,,,,,,
,,,,,,,,23,277170,2021-12-21_10h58.07.111,MemLear_ses-01_part-02_label-phase2,2020.1.3,MacIntel,60,right,1.6107,3,1.7091,0,6,6,72,1,stimuli/objects/cellphone.jpg,Electronic device & accessory,new,right,73,,,,,,,,
,,,,,,,,23,277170,2021-12-21_10h58.07.111,MemLear_ses-01_part-02_label-phase2,2020.1.3,MacIntel,60,left,0.9181,1,1.0126,0,7,7,85,1,stimuli/objects/muffintray01.jpg,Kitchen & utensil,old,left,86,,,,,,,,
,,,,,,,,23,277170,2021-12-21_10h58.07.111,MemLear_ses-01_part-02_label-phase2,2020.1.3,MacIntel,60,right,1.1718,2,1.3653,0,8,8,36,1,stimuli/objects/microphone01.jpg,Electronic device & accessory,new,right,37,,,,,,,,
,,,,,,,,23,277170,2021-12-21_10h58.07.111,MemLear_ses-01_part-02_label-phase2,2020.1.3,MacIntel,60,left,2.4106,4,2.262,0,9,9,84,1,stimuli/objects/podium.jpg,Outdoor activity & sport item,old,left,85,,,,,,,,
,,,,,,,,23,277170,2021-12-21_10h58.07.111,MemLear_ses-01_part-02_label-phase2,2020.1.3,MacIntel,60,left,2.101,2,5.8431,0,10,10,4,1,stimuli/objects/fanheater.jpg,Electronic device & accessory,old,left,5,,,,,,,,
,,,,,,,,23,277170,2021-12-21_10h58.07.111,MemLear_ses-01_part-02_label-phase2,2020.1.3,MacIntel,60,left,3.0936,2,3.5673,0,11,11,75,1,stimuli/objects/shotglass.jpg,Kitchen & utensil,old,left,76,,,,,,,,
,,,,,,,,23,277170,2021-12-21_10h58.07.111,MemLear_ses-01_part-02_label-phase2,2020.1.3,MacIntel,60,right,1.0817,4,2.3032,0,12,12,26,1,stimuli/objects/nutcracker01.jpg,Kitchen & utensil,new,right,27,,,,,,,,
,,,,,,,,23,277170,2021-12-21_10h58.07.111,MemLear_ses-01_part-02_label-phase2,2020.1.3,MacIntel,60,left,3.519,3,2.3605,0,13,13,1,1,stimuli/objects/fork03c.jpg,Kitchen & utensil,old,left,2,,,,,,,,
,,,,,,,,23,277170,2021-12-21_10h58.07.111,MemLear_ses-01_part-02_label-phase2,2020.1.3,MacIntel,60,left,1.5626,3,1.0976,0,14,14,19,1,stimuli/objects/fan.jpg,Electronic device & accessory,new,right,20,,,,,,,,
,,,,,,,,23,277170,2021-12-21_10h58.07.111,MemLear_ses-01_part-02_label-phase2,2020.1.3,MacIntel,60,left,1.6671,3,2.4611,0,15,15,10,1,stimuli/objects/adjustablewrench01b.jpg,Hand labour tool & accessory,old,left,11,,,,,,,,
,,,,,,,,23,277170,2021-12-21_10h58.07.111,MemLear_ses-01_part-02_label-phase2,2020.1.3,MacIntel,60,right,1.0704,3,2.1662,0,16,16,80,1,stimuli/objects/ladder.jpg,Hand labour tool & accessory,new,right,81,,,,,,,,
,,,,,,,,23,277170,2021-12-21_10h58.07.111,MemLear_ses-01_part-02_label-phase2,2020.1.3,MacIntel,60,right,1.104,4,1.158,0,17,17,48,1,stimuli/objects/toasteroven.jpg,Kitchen & utensil,old,left,49,,,,,,,,
,,,,,,,,23,277170,2021-12-21_10h58.07.111,MemLear_ses-01_part-02_label-phase2,2020.1.3,MacIntel,60,right,2.366,2,1.0165,0,18,18,42,1,stimuli/objects/microwave.jpg,Kitchen & utensil,new,right,43,,,,,,,,
,,,,,,,,23,277170,2021-12-21_10h58.07.111,MemLear_ses-01_part-02_label-phase2,2020.1.3,MacIntel,60,right,1.3461,2,0.717,0,19,19,71,1,stimuli/objects/contactlens.jpg,Kitchen & utensil,new,right,72,,,,,,,,
,,,,,,,,23,277170,2021-12-21_10h58.07.111,MemLear_ses-01_part-02_label-phase2,2020.1.3,MacIntel,60,left,1.1768,2,0.6161,0,20,20,73,1,stimuli/objects/djmixer02.jpg,Electronic device & accessory,old,left,74,,,,,,,,
,,,,,,,,23,277170,2021-12-21_10h58.07.111,MemLear_ses-01_part-02_label-phase2,2020.1.3,MacIntel,60,left,1.3516,2,0.4535,0,21,21,65,1,stimuli/objects/cuttingpliers02.jpg,Hand labour tool & accessory,old,left,66,,,,,,,,
,,,,,,,,23,277170,2021-12-21_10h58.07.111,MemLear_ses-01_part-02_label-phase2,2020.1.3,MacIntel,60,left,1.1421,3,0.9719,0,22,22,28,1,stimuli/objects/crocodileclips.jpg,Electronic device & accessory,old,left,29,,,,,,,,
,,,,,,,,23,277170,2021-12-21_10h58.07.111,MemLear_ses-01_part-02_label-phase2,2020.1.3,MacIntel,60,left,1.1459,4,1.1355,0,23,23,59,1,stimuli/objects/securitycamera.jpg,Electronic device & accessory,old,left,60,,,,,,,,
,,,,,,,,23,277170,2021-12-21_10h58.07.111,MemLear_ses-01_part-02_label-phase2,2020.1.3,MacIntel,60,left,1.4818,4,0.973,0,24,24,44,1,stimuli/objects/lightbulb01.jpg,Electronic device & accessory,old,left,45,,,,,,,,
,,,,,,,,23,277170,2021-12-21_10h58.07.111,MemLear_ses-01_part-02_label-phase2,2020.1.3,MacIntel,60,right,3.0737,2,1.1374,0,25,25,29,1,stimuli/objects/walkietalkie.jpg,Electronic device & accessory,old,left,30,,,,,,,,
,,,,,,,,23,277170,2021-12-21_10h58.07.111,MemLear_ses-01_part-02_label-phase2,2020.1.3,MacIntel,60,left,1.0758,4,0.8869,0,26,26,62,1,stimuli/objects/garlicpress02a.jpg,Kitchen & utensil,new,right,63,,,,,,,,
,,,,,,,,23,277170,2021-12-21_10h58.07.111,MemLear_ses-01_part-02_label-phase2,2020.1.3,MacIntel,60,right,2.1349,2,1.0332,0,27,27,68,1,stimuli/objects/bowl02a.jpg,Kitchen & utensil,old,left,69,,,,,,,,
,,,,,,,,23,277170,2021-12-21_10h58.07.111,MemLear_ses-01_part-02_label-phase2,2020.1.3,MacIntel,60,right,2.4242,2,0.7011,0,28,28,69,1,stimuli/objects/scanner.jpg,Electronic device & accessory,old,left,70,,,,,,,,
,,,,,,,,23,277170,2021-12-21_10h58.07.111,MemLear_ses-01_part-02_label-phase2,2020.1.3,MacIntel,60,right,1.0249,4,0.9594,0,29,29,47,1,stimuli/objects/jug.jpg,Kitchen & utensil,new,right,48,,,,,,,,
,,,,,,,,23,277170,2021-12-21_10h58.07.111,MemLear_ses-01_part-02_label-phase2,2020.1.3,MacIntel,60,left,1.4729,2,1.1017,0,30,30,74,1,stimuli/objects/speaker04.jpg,Electronic device & accessory,new,right,75,,,,,,,,
,,,,,,,,23,277170,2021-12-21_10h58.07.111,MemLear_ses-01_part-02_label-phase2,2020.1.3,MacIntel,60,right,2.0638,4,1.2699,0,31,31,87,1,stimuli/objects/cassettetape01a.jpg,Electronic device & accessory,new,right,88,,,,,,,,
,,,,,,,,23,277170,2021-12-21_10h58.07.111,MemLear_ses-01_part-02_label-phase2,2020.1.3,MacIntel,60,left,1.0751,4,1.1585,0,32,32,23,1,stimuli/objects/dishrack.jpg,Kitchen & utensil,old,left,24,,,,,,,,
,,,,,,,,23,277170,2021-12-21_10h58.07.111,MemLear_ses-01_part-02_label-phase2,2020.1.3,MacIntel,60,left,3.9357,2,0.4533,0,33,33,37,1,stimuli/objects/electricoutlet.jpg,Electronic device & accessory,old,left,38,,,,,,,,
,,,,,,,,23,277170,2021-12-21_10h58.07.111,MemLear_ses-01_part-02_label-phase2,2020.1.3,MacIntel,60,left,1.3166,4,1.1092,0,34,34,14,1,stimuli/objects/pastaspoon.jpg,Kitchen & utensil,old,left,15,,,,,,,,
,,,,,,,,23,277170,2021-12-21_10h58.07.111,MemLear_ses-01_part-02_label-phase2,2020.1.3,MacIntel,60,right,1.0883,3,1.4762,0,35,35,20,1,stimuli/objects/whisk.jpg,Kitchen & utensil,old,left,21,,,,,,,,
,,,,,,,,23,277170,2021-12-21_10h58.07.111,MemLear_ses-01_part-02_label-phase2,2020.1.3,MacIntel,60,left,4.4466,2,1.0929,0,36,36,81,1,stimuli/objects/toyhockeystick01.jpg,Outdoor activity & sport item,old,left,82,,,,,,,,
,,,,,,,,23,277170,2021-12-21_10h58.07.111,MemLear_ses-01_part-02_label-phase2,2020.1.3,MacIntel,60,right,1.1464,3,1.0673,0,37,37,25,1,stimuli/objects/faxmachine.jpg,Electronic device & accessory,old,left,26,,,,,,,,
,,,,,,,,23,277170,2021-12-21_10h58.07.111,MemLear_ses-01_part-02_label-phase2,2020.1.3,MacIntel,60,right,1.0805,3,0.4182,0,38,38,46,1,stimuli/objects/footballhelmet.jpg,Outdoor activity & sport item,new,right,47,,,,,,,,
,,,,,,,,23,277170,2021-12-21_10h58.07.111,MemLear_ses-01_part-02_label-phase2,2020.1.3,MacIntel,60,right,1.1729,3,0.3531,0,39,39,64,1,stimuli/objects/telephone01b.jpg,Electronic device & accessory,old,left,65,,,,,,,,
,,,,,,,,23,277170,2021-12-21_10h58.07.111,MemLear_ses-01_part-02_label-phase2,2020.1.3,MacIntel,60,left,1.2073,2,0.8548,0,40,40,13,1,stimuli/objects/cakeplatter.jpg,Kitchen & utensil,old,left,14,,,,,,,,
,,,,,,,,23,277170,2021-12-21_10h58.07.111,MemLear_ses-01_part-02_label-phase2,2020.1.3,MacIntel,60,right,1.0888,3,0.4888,0,41,41,38,1,stimuli/objects/caulking.jpg,Hand labour tool & accessory,old,left,39,,,,,,,,
,,,,,,,,23,277170,2021-12-21_10h58.07.111,MemLear_ses-01_part-02_label-phase2,2020.1.3,MacIntel,60,right,0.9607,3,0.4,0,42,42,82,1,stimuli/objects/hockeygoaliepad.jpg,Outdoor activity & sport item,new,right,83,,,,,,,,
,,,,,,,,23,277170,2021-12-21_10h58.07.111,MemLear_ses-01_part-02_label-phase2,2020.1.3,MacIntel,60,left,1.0197,4,0.7014,0,43,43,31,1,stimuli/objects/filmnegative.jpg,Electronic device & accessory,old,left,32,,,,,,,,
,,,,,,,,23,277170,2021-12-21_10h58.07.111,MemLear_ses-01_part-02_label-phase2,2020.1.3,MacIntel,60,right,1.0803,4,0.5187,0,44,44,9,1,stimuli/objects/aluminiumfoil.jpg,Kitchen & utensil,new,right,10,,,,,,,,
,,,,,,,,23,277170,2021-12-21_10h58.07.111,MemLear_ses-01_part-02_label-phase2,2020.1.3,MacIntel,60,right,5.1091,2,1.4014,0,45,45,21,1,stimuli/objects/avcable.jpg,Electronic device & accessory,old,left,22,,,,,,,,
,,,,,,,,23,277170,2021-12-21_10h58.07.111,MemLear_ses-01_part-02_label-phase2,2020.1.3,MacIntel,60,left,1.3535,3,1.8994,0,46,46,17,1,stimuli/objects/ethernetcable02.jpg,Electronic device & accessory,new,right,18,,,,,,,,
,,,,,,,,23,277170,2021-12-21_10h58.07.111,MemLear_ses-01_part-02_label-phase2,2020.1.3,MacIntel,60,left,2.7417,2,0.2587,0,47,47,34,1,stimuli/objects/knife03.jpg,Kitchen & utensil,old,left,35,,,,,,,,
,,,,,,,,23,277170,2021-12-21_10h58.07.111,MemLear_ses-01_part-02_label-phase2,2020.1.3,MacIntel,60,right,1.2978,4,1.0154,0,48,48,12,1,stimuli/objects/fanblades.jpg,Electronic device & accessory,new,right,13,,,,,,,,
,,,,,,,,23,277170,2021-12-21_10h58.07.111,MemLear_ses-01_part-02_label-phase2,2020.1.3,MacIntel,60,right,0.9672,3,1.0078,0,49,49,3,1,stimuli/objects/charcoalbarbecue.jpg,Outdoor activity & sport item,old,left,4,,,,,,,,
,,,,,,,,23,277170,2021-12-21_10h58.07.111,MemLear_ses-01_part-02_label-phase2,2020.1.3,MacIntel,60,right,1.0876,4,0.3187,0,50,50,89,1,stimuli/objects/minifridge.jpg,Kitchen & utensil,old,left,90,,,,,,,,
,,,,,,,,23,277170,2021-12-21_10h58.07.111,MemLear_ses-01_part-02_label-phase2,2020.1.3,MacIntel,60,right,1.2964,4,0.3221,0,51,51,50,1,stimuli/objects/hockeygoaliemask.jpg,Outdoor activity & sport item,new,right,51,,,,,,,,
,,,,,,,,23,277170,2021-12-21_10h58.07.111,MemLear_ses-01_part-02_label-phase2,2020.1.3,MacIntel,60,right,1.0981,3,0.3554,0,52,52,78,1,stimuli/objects/wateringcan.jpg,Hand labour tool & accessory,old,left,79,,,,,,,,
,,,,,,,,23,277170,2021-12-21_10h58.07.111,MemLear_ses-01_part-02_label-phase2,2020.1.3,MacIntel,60,right,0.8961,3,0.3178,0,53,53,76,1,stimuli/objects/blender.jpg,Kitchen & utensil,new,right,77,,,,,,,,
,,,,,,,,23,277170,2021-12-21_10h58.07.111,MemLear_ses-01_part-02_label-phase2,2020.1.3,MacIntel,60,right,1.836,3,0.1713,0,54,54,8,1,stimuli/objects/cameracase01a.jpg,Electronic device & accessory,old,left,9,,,,,,,,
,,,,,,,,23,277170,2021-12-21_10h58.07.111,MemLear_ses-01_part-02_label-phase2,2020.1.3,MacIntel,60,right,1.2572,2,0.3688,0,55,55,32,1,stimuli/objects/thermos.jpg,Kitchen & utensil,new,right,33,,,,,,,,
,,,,,,,,23,277170,2021-12-21_10h58.07.111,MemLear_ses-01_part-02_label-phase2,2020.1.3,MacIntel,60,left,1.2368,3,2.9921,0,56,56,0,1,stimuli/objects/ipod.jpg,Electronic device & accessory,old,left,1,,,,,,,,
,,,,,,,,23,277170,2021-12-21_10h58.07.111,MemLear_ses-01_part-02_label-phase2,2020.1.3,MacIntel,60,left,1.1569,3,0.4319,0,57,57,55,1,stimuli/objects/fonduefork01.jpg,Kitchen & utensil,old,left,56,,,,,,,,
,,,,,,,,23,277170,2021-12-21_10h58.07.111,MemLear_ses-01_part-02_label-phase2,2020.1.3,MacIntel,60,right,1.3069,2,1.2036,0,58,58,2,1,stimuli/objects/martiniglass01b.jpg,Kitchen & utensil,old,left,3,,,,,,,,
,,,,,,,,23,277170,2021-12-21_10h58.07.111,MemLear_ses-01_part-02_label-phase2,2020.1.3,MacIntel,60,right,5.0471,3,1.2015,0,59,59,77,1,stimuli/objects/alarmclock01.jpg,Electronic device & accessory,new,right,78,,,,,,,,
,,,,,,,,23,277170,2021-12-21_10h58.07.111,MemLear_ses-01_part-02_label-phase2,2020.1.3,MacIntel,60,right,0.9673,3,0.7091,0,60,60,60,1,stimuli/objects/payphone.jpg,Electronic device & accessory,old,left,61,,,,,,,,
,,,,,,,,23,277170,2021-12-21_10h58.07.111,MemLear_ses-01_part-02_label-phase2,2020.1.3,MacIntel,60,right,0.7435,3,0.3138,0,61,61,6,1,stimuli/objects/stovetop.jpg,Kitchen & utensil,new,right,7,,,,,,,,
,,,,,,,,23,277170,2021-12-21_10h58.07.111,MemLear_ses-01_part-02_label-phase2,2020.1.3,MacIntel,60,right,1.3789,3,0.2981,0,62,62,33,1,stimuli/objects/powercable.jpg,Electronic device & accessory,old,left,34,,,,,,,,
,,,,,,,,23,277170,2021-12-21_10h58.07.111,MemLear_ses-01_part-02_label-phase2,2020.1.3,MacIntel,60,left,0.9977,4,0.4689,0,63,63,63,1,stimuli/objects/peppermill02b.jpg,Kitchen & utensil,old,left,64,,,,,,,,
,,,,,,,,23,277170,2021-12-21_10h58.07.111,MemLear_ses-01_part-02_label-phase2,2020.1.3,MacIntel,60,left,1.2822,3,0.575,0,64,64,35,1,stimuli/objects/fryingpan02a.jpg,Kitchen & utensil,old,left,36,,,,,,,,
,,,,,,,,23,277170,2021-12-21_10h58.07.111,MemLear_ses-01_part-02_label-phase2,2020.1.3,MacIntel,60,right,1.738,2,1.1208,0,65,65,52,1,stimuli/objects/coffeemaker.jpg,Kitchen & utensil,old,left,53,,,,,,,,
,,,,,,,,23,277170,2021-12-21_10h58.07.111,MemLear_ses-01_part-02_label-phase2,2020.1.3,MacIntel,60,left,1.2528,4,0.4994,0,66,66,18,1,stimuli/objects/soundmixer.jpg,Electronic device & accessory,old,left,19,,,,,,,,
,,,,,,,,23,277170,2021-12-21_10h58.07.111,MemLear_ses-01_part-02_label-phase2,2020.1.3,MacIntel,60,left,1.208,3,1.5676,0,67,67,88,1,stimuli/objects/cuttingboard.jpg,Kitchen & utensil,old,left,89,,,,,,,,
,,,,,,,,23,277170,2021-12-21_10h58.07.111,MemLear_ses-01_part-02_label-phase2,2020.1.3,MacIntel,60,right,1.0408,3,2.1741,0,68,68,83,1,stimuli/objects/spotlight.jpg,Electronic device & accessory,old,left,84,,,,,,,,
,,,,,,,,23,277170,2021-12-21_10h58.07.111,MemLear_ses-01_part-02_label-phase2,2020.1.3,MacIntel,60,left,1.6014,3,1.633,0,69,69,70,1,stimuli/objects/heatpump.jpg,Electronic device & accessory,old,left,71,,,,,,,,
,,,,,,,,23,277170,2021-12-21_10h58.07.111,MemLear_ses-01_part-02_label-phase2,2020.1.3,MacIntel,60,right,1.0443,3,1.2135,0,70,70,79,1,stimuli/objects/espressomachine.jpg,Kitchen & utensil,new,right,80,,,,,,,,
,,,,,,,,23,277170,2021-12-21_10h58.07.111,MemLear_ses-01_part-02_label-phase2,2020.1.3,MacIntel,60,right,1.4114,3,0.3183,0,71,71,45,1,stimuli/objects/studiolight.jpg,Electronic device & accessory,new,right,46,,,,,,,,
,,,,,,,,23,277170,2021-12-21_10h58.07.111,MemLear_ses-01_part-02_label-phase2,2020.1.3,MacIntel,60,right,0.9643,3,0.193,0,72,72,15,1,stimuli/objects/spicerack.jpg,Kitchen & utensil,old,left,16,,,,,,,,
,,,,,,,,23,277170,2021-12-21_10h58.07.111,MemLear_ses-01_part-02_label-phase2,2020.1.3,MacIntel,60,right,0.8899,3,0.2399,0,73,73,53,1,stimuli/objects/tripod01.jpg,Electronic device & accessory,new,right,54,,,,,,,,
,,,,,,,,23,277170,2021-12-21_10h58.07.111,MemLear_ses-01_part-02_label-phase2,2020.1.3,MacIntel,60,right,1.0917,3,0.2957,0,74,74,86,1,stimuli/objects/floppydisk02a.jpg,Electronic device & accessory,new,right,87,,,,,,,,
,,,,,,,,23,277170,2021-12-21_10h58.07.111,MemLear_ses-01_part-02_label-phase2,2020.1.3,MacIntel,60,right,0.7679,3,0.0257,0,75,75,67,1,stimuli/objects/foodprocessor.jpg,Kitchen & utensil,new,right,68,,,,,,,,
,,,,,,,,23,277170,2021-12-21_10h58.07.111,MemLear_ses-01_part-02_label-phase2,2020.1.3,MacIntel,60,left,1.1552,4,0.2166,0,76,76,58,1,stimuli/objects/servingspoon01.jpg,Kitchen & utensil,old,left,59,,,,,,,,
,,,,,,,,23,277170,2021-12-21_10h58.07.111,MemLear_ses-01_part-02_label-phase2,2020.1.3,MacIntel,60,right,1.2238,3,0.4211,0,77,77,24,1,stimuli/objects/fuse.jpg,Electronic device & accessory,new,right,25,,,,,,,,
,,,,,,,,23,277170,2021-12-21_10h58.07.111,MemLear_ses-01_part-02_label-phase2,2020.1.3,MacIntel,60,right,1.1808,3,0.9217,0,78,78,61,1,stimuli/objects/cork02.jpg,Kitchen & utensil,new,right,62,,,,,,,,
,,,,,,,,23,277170,2021-12-21_10h58.07.111,MemLear_ses-01_part-02_label-phase2,2020.1.3,MacIntel,60,right,2.1035,2,0.1682,0,79,79,39,1,stimuli/objects/screwdriver04b.jpg,Hand labour tool & accessory,new,right,40,,,,,,,,
,,,,,,,,23,277170,2021-12-21_10h58.07.111,MemLear_ses-01_part-02_label-phase2,2020.1.3,MacIntel,60,right,1.0475,3,0.9222,0,80,80,27,1,stimuli/objects/surfboard.jpg,Outdoor activity & sport item,old,left,28,,,,,,,,
,,,,,,,,23,277170,2021-12-21_10h58.07.111,MemLear_ses-01_part-02_label-phase2,2020.1.3,MacIntel,60,left,1.0878,3,0.7513,0,81,81,7,1,stimuli/objects/expansioncard.jpg,Electronic device & accessory,old,left,8,,,,,,,,
,,,,,,,,23,277170,2021-12-21_10h58.07.111,MemLear_ses-01_part-02_label-phase2,2020.1.3,MacIntel,60,right,1.1009,3,1.7515,0,82,82,43,1,stimuli/objects/umbrella04.jpg,Outdoor activity & sport item,old,left,44,,,,,,,,
,,,,,,,,23,277170,2021-12-21_10h58.07.111,MemLear_ses-01_part-02_label-phase2,2020.1.3,MacIntel,60,right,2.4405,2,0.3975,0,83,83,16,1,stimuli/objects/knifesharpener.jpg,Hand labour tool & accessory,old,left,17,,,,,,,,
,,,,,,,,23,277170,2021-12-21_10h58.07.111,MemLear_ses-01_part-02_label-phase2,2020.1.3,MacIntel,60,left,1.0174,2,1.0042,0,84,84,40,1,stimuli/objects/beermug01a.jpg,Kitchen & utensil,old,left,41,,,,,,,,
,,,,,,,,23,277170,2021-12-21_10h58.07.111,MemLear_ses-01_part-02_label-phase2,2020.1.3,MacIntel,60,right,1.3551,2,1.0594,0,85,85,66,1,stimuli/objects/coffeemachine.jpg,Electronic device & accessory,old,left,67,,,,,,,,
,,,,,,,,23,277170,2021-12-21_10h58.07.111,MemLear_ses-01_part-02_label-phase2,2020.1.3,MacIntel,60,right,1.3572,3,0.4009,0,86,86,57,1,stimuli/objects/spatula04.jpg,Kitchen & utensil,old,left,58,,,,,,,,
,,,,,,,,23,277170,2021-12-21_10h58.07.111,MemLear_ses-01_part-02_label-phase2,2020.1.3,MacIntel,60,left,2.674,3,0.5694,0,87,87,5,1,stimuli/objects/tablesaw.jpg,Hand labour tool & accessory,old,left,6,,,,,,,,
,,,,,,,,23,277170,2021-12-21_10h58.07.111,MemLear_ses-01_part-02_label-phase2,2020.1.3,MacIntel,60,right,0.8619,3,1.0986,0,88,88,54,1,stimuli/objects/lectern01.jpg,Electronic device & accessory,old,left,55,,,,,,,,
,,,,,,,,23,277170,2021-12-21_10h58.07.111,MemLear_ses-01_part-02_label-phase2,2020.1.3,MacIntel,60,right,0.9614,3,0.2122,0,89,89,56,1,stimuli/objects/chocolatefonduedish.jpg,Kitchen & utensil,old,left,57,,,,,,,,
,,,,,,,,23,277170,2021-12-21_10h58.07.111,MemLear_ses-01_part-02_label-phase2,2020.1.3,MacIntel,60,,,,,,,,,,,,,,,space,4.823,0,0,0,0,1,condition_files/ImagesforRecog4_1.csv
,,,,,,,,23,277170,2021-12-21_10h58.07.111,MemLear_ses-01_part-02_label-phase2,2020.1.3,MacIntel,60,left,3.934,2,0.2928,0,0,0,12,1,stimuli/objects/kitchenscale01a.jpg,Kitchen & utensil,old,left,103,,,,,,,,
,,,,,,,,23,277170,2021-12-21_10h58.07.111,MemLear_ses-01_part-02_label-phase2,2020.1.3,MacIntel,60,right,0.9368,3,0.4559,0,1,1,66,1,stimuli/objects/swimgoggles.jpg,Outdoor activity & sport item,old,left,157,,,,,,,,
,,,,,,,,23,277170,2021-12-21_10h58.07.111,MemLear_ses-01_part-02_label-phase2,2020.1.3,MacIntel,60,left,1.6589,3,1.5187,0,2,2,56,1,stimuli/objects/potatomasher03b.jpg,Kitchen & utensil,old,left,147,,,,,,,,
,,,,,,,,23,277170,2021-12-21_10h58.07.111,MemLear_ses-01_part-02_label-phase2,2020.1.3,MacIntel,60,right,0.9263,3,0.8549,0,3,3,84,1,stimuli/objects/kneepad01c.jpg,Outdoor activity & sport item,old,left,175,,,,,,,,
,,,,,,,,23,277170,2021-12-21_10h58.07.111,MemLear_ses-01_part-02_label-phase2,2020.1.3,MacIntel,60,right,1.0778,3,0.5195,0,4,4,58,1,stimuli/objects/gps.jpg,Electronic device & accessory,old,left,149,,,,,,,,
,,,,,,,,23,277170,2021-12-21_10h58.07.111,MemLear_ses-01_part-02_label-phase2,2020.1.3,MacIntel,60,right,1.2877,2,0.8563,0,5,5,2,1,stimuli/objects/waterbottle03.jpg,Kitchen & utensil,old,left,93,,,,,,,,
,,,,,,,,23,277170,2021-12-21_10h58.07.111,MemLear_ses-01_part-02_label-phase2,2020.1.3,MacIntel,60,right,1.1073,3,1.5699,0,6,6,68,1,stimuli/objects/antenna.jpg,Electronic device & accessory,new,right,159,,,,,,,,
,,,,,,,,23,277170,2021-12-21_10h58.07.111,MemLear_ses-01_part-02_label-phase2,2020.1.3,MacIntel,60,left,0.917,2,0.3485,0,7,7,88,1,stimuli/objects/strainer01b.jpg,Kitchen & utensil,new,right,179,,,,,,,,
,,,,,,,,23,277170,2021-12-21_10h58.07.111,MemLear_ses-01_part-02_label-phase2,2020.1.3,MacIntel,60,right,0.9482,3,0.6128,0,8,8,34,1,stimuli/objects/fishingrod.jpg,Outdoor activity & sport item,new,right,125,,,,,,,,
,,,,,,,,23,277170,2021-12-21_10h58.07.111,MemLear_ses-01_part-02_label-phase2,2020.1.3,MacIntel,60,right,0.924,3,0.1221,0,9,9,53,1,stimuli/objects/megaphone.jpg,Electronic device & accessory,new,right,144,,,,,,,,
,,,,,,,,23,277170,2021-12-21_10h58.07.111,MemLear_ses-01_part-02_label-phase2,2020.1.3,MacIntel,60,left,1.7686,2,0.2034,0,10,10,42,1,stimuli/objects/icepack.jpg,Kitchen & utensil,old,left,133,,,,,,,,
,,,,,,,,23,277170,2021-12-21_10h58.07.111,MemLear_ses-01_part-02_label-phase2,2020.1.3,MacIntel,60,left,1.8229,2,0.1898,0,11,11,77,1,stimuli/objects/canister.jpg,Kitchen & utensil,old,left,168,,,,,,,,
,,,,,,,,23,277170,2021-12-21_10h58.07.111,MemLear_ses-01_part-02_label-phase2,2020.1.3,MacIntel,60,right,1.1078,2,0.859,0,12,12,41,1,stimuli/objects/bottleopener01.jpg,Kitchen & utensil,new,right,132,,,,,,,,
,,,,,,,,23,277170,2021-12-21_10h58.07.111,MemLear_ses-01_part-02_label-phase2,2020.1.3,MacIntel,60,right,1.3492,2,0.1489,0,13,13,26,1,stimuli/objects/printer02.jpg,Electronic device & accessory,new,right,117,,,,,,,,
,,,,,,,,23,277170,2021-12-21_10h58.07.111,MemLear_ses-01_part-02_label-phase2,2020.1.3,MacIntel,60,right,1.2224,2,0.0006,0,14,14,9,1,stimuli/objects/satellitedish01.jpg,Electronic device & accessory,new,right,100,,,,,,,,
,,,,,,,,23,277170,2021-12-21_10h58.07.111,MemLear_ses-01_part-02_label-phase2,2020.1.3,MacIntel,60,right,4.2143,2,0.3157,0,15,15,28,1,stimuli/objects/phonejack.jpg,Electronic device & accessory,old,left,119,,,,,,,,
,,,,,,,,23,277170,2021-12-21_10h58.07.111,MemLear_ses-01_part-02_label-phase2,2020.1.3,MacIntel,60,right,3.5747,2,0.3028,0,16,16,0,1,stimuli/objects/solderingiron.jpg,Hand labour tool & accessory,new,right,91,,,,,,,,
,,,,,,,,23,277170,2021-12-21_10h58.07.111,MemLear_ses-01_part-02_label-phase2,2020.1.3,MacIntel,60,right,1.6278,2,0.0593,0,17,17,6,1,stimuli/objects/wiicontroller.jpg,Electronic device & accessory,old,left,97,,,,,,,,
,,,,,,,,23,277170,2021-12-21_10h58.07.111,MemLear_ses-01_part-02_label-phase2,2020.1.3,MacIntel,60,right,1.2933,2,0.001,0,18,18,47,1,stimuli/objects/peeler01.jpg,Kitchen & utensil,old,left,138,,,,,,,,
,,,,,,,,23,277170,2021-12-21_10h58.07.111,MemLear_ses-01_part-02_label-phase2,2020.1.3,MacIntel,60,right,3.8378,2,0.3229,0,19,19,19,1,stimuli/objects/jack.jpg,Electronic device & accessory,old,left,110,,,,,,,,
,,,,,,,,23,277170,2021-12-21_10h58.07.111,MemLear_ses-01_part-02_label-phase2,2020.1.3,MacIntel,60,right,1.0942,2,1.0855,0,20,20,5,1,stimuli/objects/filmroll.jpg,Electronic device & accessory,old,left,96,,,,,,,,
,,,,,,,,23,277170,2021-12-21_10h58.07.111,MemLear_ses-01_part-02_label-phase2,2020.1.3,MacIntel,60,left,2.9157,3,1.659,0,21,21,33,1,stimuli/objects/lamp04a.jpg,Electronic device & accessory,old,left,124,,,,,,,,
,,,,,,,,23,277170,2021-12-21_10h58.07.111,MemLear_ses-01_part-02_label-phase2,2020.1.3,MacIntel,60,right,1.0833,2,0.7494,0,22,22,80,1,stimuli/objects/boltcutter.jpg,Hand labour tool & accessory,old,left,171,,,,,,,,
,,,,,,,,23,277170,2021-12-21_10h58.07.111,MemLear_ses-01_part-02_label-phase2,2020.1.3,MacIntel,60,right,2.0292,2,0.0304,0,23,23,85,1,stimuli/objects/gravyboat.jpg,Kitchen & utensil,new,right,176,,,,,,,,
,,,,,,,,23,277170,2021-12-21_10h58.07.111,MemLear_ses-01_part-02_label-phase2,2020.1.3,MacIntel,60,left,2.4257,2,0.1514,0,24,24,27,1,stimuli/objects/squeegee01b.jpg,Hand labour tool & accessory,old,left,118,,,,,,,,
,,,,,,,,23,277170,2021-12-21_10h58.07.111,MemLear_ses-01_part-02_label-phase2,2020.1.3,MacIntel,60,left,2.596,2,0.6486,0,25,25,72,1,stimuli/objects/golfbag.jpg,Outdoor activity & sport item,old,left,163,,,,,,,,
,,,,,,,,23,277170,2021-12-21_10h58.07.111,MemLear_ses-01_part-02_label-phase2,2020.1.3,MacIntel,60,right,1.1951,3,0.6022,0,26,26,1,1,stimuli/objects/nintendods.jpg,Electronic device & accessory,old,left,92,,,,,,,,
,,,,,,,,23,277170,2021-12-21_10h58.07.111,MemLear_ses-01_part-02_label-phase2,2020.1.3,MacIntel,60,right,1.0447,3,0.1151,0,27,27,7,1,stimuli/objects/mitresaw.jpg,Hand labour tool & accessory,new,right,98,,,,,,,,
,,,,,,,,23,277170,2021-12-21_10h58.07.111,MemLear_ses-01_part-02_label-phase2,2020.1.3,MacIntel,60,right,1.1289,2,1.4011,0,28,28,67,1,stimuli/objects/pitcher02b.jpg,Kitchen & utensil,old,left,158,,,,,,,,
,,,,,,,,23,277170,2021-12-21_10h58.07.111,MemLear_ses-01_part-02_label-phase2,2020.1.3,MacIntel,60,right,1.1426,2,0.1368,0,29,29,76,1,stimuli/objects/tableknife02.jpg,Kitchen & utensil,new,right,167,,,,,,,,
,,,,,,,,23,277170,2021-12-21_10h58.07.111,MemLear_ses-01_part-02_label-phase2,2020.1.3,MacIntel,60,right,1.3019,3,0.1733,0,30,30,21,1,stimuli/objects/funnel.jpg,Kitchen & utensil,old,left,112,,,,,,,,
,,,,,,,,23,277170,2021-12-21_10h58.07.111,MemLear_ses-01_part-02_label-phase2,2020.1.3,MacIntel,60,right,1.0962,2,0.1878,0,31,31,57,1,stimuli/objects/extensioncord.jpg,Electronic device & accessory,old,left,148,,,,,,,,
,,,,,,,,23,277170,2021-12-21_10h58.07.111,MemLear_ses-01_part-02_label-phase2,2020.1.3,MacIntel,60,right,1.3914,2,0.0862,0,32,32,29,1,stimuli/objects/coffeepot03a.jpg,Kitchen & utensil,old,left,120,,,,,,,,
,,,,,,,,23,277170,2021-12-21_10h58.07.111,MemLear_ses-01_part-02_label-phase2,2020.1.3,MacIntel,60,right,0.9543,2,0.0007,0,33,33,37,1,stimuli/objects/desktopcomputer.jpg,Electronic device & accessory,old,left,128,,,,,,,,
,,,,,,,,23,277170,2021-12-21_10h58.07.111,MemLear_ses-01_part-02_label-phase2,2020.1.3,MacIntel,60,right,1.1065,2,0.0395,0,34,34,22,1,stimuli/objects/lawnmower.jpg,Hand labour tool & accessory,old,left,113,,,,,,,,
,,,,,,,,23,277170,2021-12-21_10h58.07.111,MemLear_ses-01_part-02_label-phase2,2020.1.3,MacIntel,60,right,1.023,2,0.7701,0,35,35,87,1,stimuli/objects/painttray.jpg,Hand labour tool & accessory,old,left,178,,,,,,,,
,,,,,,,,23,277170,2021-12-21_10h58.07.111,MemLear_ses-01_part-02_label-phase2,2020.1.3,MacIntel,60,right,1.0201,2,0.1187,0,36,36,64,1,stimuli/objects/grill.jpg,Kitchen & utensil,old,left,155,,,,,,,,
,,,,,,,,23,277170,2021-12-21_10h58.07.111,MemLear_ses-01_part-02_label-phase2,2020.1.3,MacIntel,60,right,1.7991,2,0.585,0,37,37,46,1,stimuli/objects/audiocablesplitter.jpg,Electronic device & accessory,old,left,137,,,,,,,,
,,,,,,,,23,277170,2021-12-21_10h58.07.111,MemLear_ses-01_part-02_label-phase2,2020.1.3,MacIntel,60,right,0.9721,2,0.3128,0,38,38,89,1,stimuli/objects/dvdcase01.jpg,Electronic device & accessory,new,right,180,,,,,,,,
,,,,,,,,23,277170,2021-12-21_10h58.07.111,MemLear_ses-01_part-02_label-phase2,2020.1.3,MacIntel,60,left,5.5867,2,0.1104,0,39,39,78,1,stimuli/objects/videocamera01a.jpg,Electronic device & accessory,old,left,169,,,,,,,,
,,,,,,,,23,277170,2021-12-21_10h58.07.111,MemLear_ses-01_part-02_label-phase2,2020.1.3,MacIntel,60,right,0.845,2,0.3332,0,40,40,62,1,stimuli/objects/hourglass.jpg,Kitchen & utensil,new,right,153,,,,,,,,
,,,,,,,,23,277170,2021-12-21_10h58.07.111,MemLear_ses-01_part-02_label-phase2,2020.1.3,MacIntel,60,right,2.362,2,0.5328,0,41,41,13,1,stimuli/objects/smokedetector02.jpg,Electronic device & accessory,new,right,104,,,,,,,,
,,,,,,,,23,277170,2021-12-21_10h58.07.111,MemLear_ses-01_part-02_label-phase2,2020.1.3,MacIntel,60,left,1.0984,4,0.6832,0,42,42,59,1,stimuli/objects/icecubetray01a.jpg,Kitchen & utensil,new,right,150,,,,,,,,
,,,,,,,,23,277170,2021-12-21_10h58.07.111,MemLear_ses-01_part-02_label-phase2,2020.1.3,MacIntel,60,right,1.9587,2,0.939,0,43,43,35,1,stimuli/objects/spatula03.jpg,Kitchen & utensil,old,left,126,,,,,,,,
,,,,,,,,23,277170,2021-12-21_10h58.07.111,MemLear_ses-01_part-02_label-phase2,2020.1.3,MacIntel,60,left,3.3721,2,0.2365,0,44,44,51,1,stimuli/objects/remotecontrol04.jpg,Electronic device & accessory,old,left,142,,,,,,,,
,,,,,,,,23,277170,2021-12-21_10h58.07.111,MemLear_ses-01_part-02_label-phase2,2020.1.3,MacIntel,60,right,1.1912,4,0.6001,0,45,45,70,1,stimuli/objects/hockeypuck.jpg,Outdoor activity & sport item,new,right,161,,,,,,,,
,,,,,,,,23,277170,2021-12-21_10h58.07.111,MemLear_ses-01_part-02_label-phase2,2020.1.3,MacIntel,60,left,1.2713,3,1.3766,0,46,46,54,1,stimuli/objects/butterdish.jpg,Kitchen & utensil,new,right,145,,,,,,,,
,,,,,,,,23,277170,2021-12-21_10h58.07.111,MemLear_ses-01_part-02_label-phase2,2020.1.3,MacIntel,60,right,1.1609,2,0.7349,0,47,47,73,1,stimuli/objects/cashregister01.jpg,Electronic device & accessory,old,left,164,,,,,,,,
,,,,,,,,23,277170,2021-12-21_10h58.07.111,MemLear_ses-01_part-02_label-phase2,2020.1.3,MacIntel,60,left,3.5642,3,3.3681,0,48,48,31,1,stimuli/objects/cutleryset.jpg,Kitchen & utensil,new,right,122,,,,,,,,
,,,,,,,,23,277170,2021-12-21_10h58.07.111,MemLear_ses-01_part-02_label-phase2,2020.1.3,MacIntel,60,right,1.4952,2,0.7709,0,49,49,83,1,stimuli/objects/carlighter02.jpg,Electronic device & accessory,old,left,174,,,,,,,,
,,,,,,,,23,277170,2021-12-21_10h58.07.111,MemLear_ses-01_part-02_label-phase2,2020.1.3,MacIntel,60,right,0.9375,2,0.3741,0,50,50,79,1,stimuli/objects/handmixer01d.jpg,Kitchen & utensil,old,left,170,,,,,,,,
,,,,,,,,23,277170,2021-12-21_10h58.07.111,MemLear_ses-01_part-02_label-phase2,2020.1.3,MacIntel,60,right,2.2747,2,0.325,0,51,51,45,1,stimuli/objects/breadknife.jpg,Kitchen & utensil,old,left,136,,,,,,,,
,,,,,,,,23,277170,2021-12-21_10h58.07.111,MemLear_ses-01_part-02_label-phase2,2020.1.3,MacIntel,60,right,2.8898,2,0.6667,0,52,52,60,1,stimuli/objects/icebucket.jpg,Kitchen & utensil,old,left,151,,,,,,,,
,,,,,,,,23,277170,2021-12-21_10h58.07.111,MemLear_ses-01_part-02_label-phase2,2020.1.3,MacIntel,60,right,0.8883,2,0.2592,0,53,53,18,1,stimuli/objects/fridge.jpg,Kitchen & utensil,old,left,109,,,,,,,,
,,,,,,,,23,277170,2021-12-21_10h58.07.111,MemLear_ses-01_part-02_label-phase2,2020.1.3,MacIntel,60,right,0.8494,2,0.4837,0,54,54,38,1,stimuli/objects/measuringspoon.jpg,Kitchen & utensil,old,left,129,,,,,,,,
,,,,,,,,23,277170,2021-12-21_10h58.07.111,MemLear_ses-01_part-02_label-phase2,2020.1.3,MacIntel,60,right,0.9587,2,0.3014,0,55,55,30,1,stimuli/objects/backpack01a.jpg,Outdoor activity & sport item,old,left,121,,,,,,,,
,,,,,,,,23,277170,2021-12-21_10h58.07.111,MemLear_ses-01_part-02_label-phase2,2020.1.3,MacIntel,60,right,2.7132,2,0.2044,0,56,56,10,1,stimuli/objects/chandelier.jpg,Electronic device & accessory,old,left,101,,,,,,,,
,,,,,,,,23,277170,2021-12-21_10h58.07.111,MemLear_ses-01_part-02_label-phase2,2020.1.3,MacIntel,60,right,0.8562,2,0.2698,0,57,57,23,1,stimuli/objects/shovel01.jpg,Hand labour tool & accessory,new,right,114,,,,,,,,
,,,,,,,,23,277170,2021-12-21_10h58.07.111,MemLear_ses-01_part-02_label-phase2,2020.1.3,MacIntel,60,left,1.6802,2,1.4698,0,58,58,75,1,stimuli/objects/saltshaker03a.jpg,Kitchen & utensil,old,left,166,,,,,,,,
,,,,,,,,23,277170,2021-12-21_10h58.07.111,MemLear_ses-01_part-02_label-phase2,2020.1.3,MacIntel,60,left,1.676,2,0.4009,0,59,59,4,1,stimuli/objects/webcam.jpg,Electronic device & accessory,new,right,95,,,,,,,,
,,,,,,,,23,277170,2021-12-21_10h58.07.111,MemLear_ses-01_part-02_label-phase2,2020.1.3,MacIntel,60,right,1.1176,2,0.1807,0,60,60,36,1,stimuli/objects/tupperware03a.jpg,Kitchen & utensil,old,left,127,,,,,,,,
,,,,,,,,23,277170,2021-12-21_10h58.07.111,MemLear_ses-01_part-02_label-phase2,2020.1.3,MacIntel,60,right,2.6506,2,0.2745,0,61,61,74,1,stimuli/objects/radio01.jpg,Electronic device & accessory,old,left,165,,,,,,,,
,,,,,,,,23,277170,2021-12-21_10h58.07.111,MemLear_ses-01_part-02_label-phase2,2020.1.3,MacIntel,60,left,1.4437,2,0.3033,0,62,62,39,1,stimuli/objects/cookingpot.jpg,Kitchen & utensil,old,left,130,,,,,,,,
,,,,,,,,23,277170,2021-12-21_10h58.07.111,MemLear_ses-01_part-02_label-phase2,2020.1.3,MacIntel,60,right,1.2425,2,0.3534,0,63,63,71,1,stimuli/objects/computerkeyboard02.jpg,Electronic device & accessory,old,left,162,,,,,,,,
,,,,,,,,23,277170,2021-12-21_10h58.07.111,MemLear_ses-01_part-02_label-phase2,2020.1.3,MacIntel,60,right,1.464,2,0.0195,0,64,64,44,1,stimuli/objects/ramekin01.jpg,Kitchen & utensil,old,left,135,,,,,,,,
,,,,,,,,23,277170,2021-12-21_10h58.07.111,MemLear_ses-01_part-02_label-phase2,2020.1.3,MacIntel,60,left,3.662,3,1.5851,0,65,65,81,1,stimuli/objects/cowbell.jpg,Kitchen & utensil,old,left,172,,,,,,,,
,,,,,,,,23,277170,2021-12-21_10h58.07.111,MemLear_ses-01_part-02_label-phase2,2020.1.3,MacIntel,60,right,0.8902,2,0.2035,0,66,66,17,1,stimuli/objects/styrofoamcup.jpg,Kitchen & utensil,new,right,108,,,,,,,,
,,,,,,,,23,277170,2021-12-21_10h58.07.111,MemLear_ses-01_part-02_label-phase2,2020.1.3,MacIntel,60,right,0.7871,2,0.2805,0,67,67,32,1,stimuli/objects/toaster01.jpg,Kitchen & utensil,new,right,123,,,,,,,,
,,,,,,,,23,277170,2021-12-21_10h58.07.111,MemLear_ses-01_part-02_label-phase2,2020.1.3,MacIntel,60,right,0.7364,2,0.0987,0,68,68,69,1,stimuli/objects/alarmsystem.jpg,Electronic device & accessory,old,left,160,,,,,,,,
,,,,,,,,23,277170,2021-12-21_10h58.07.111,MemLear_ses-01_part-02_label-phase2,2020.1.3,MacIntel,60,right,0.9204,2,0.0814,0,69,69,43,1,stimuli/objects/swissarmyknife01a.jpg,Hand labour tool & accessory,old,left,134,,,,,,,,
,,,,,,,,23,277170,2021-12-21_10h58.07.111,MemLear_ses-01_part-02_label-phase2,2020.1.3,MacIntel,60,left,1.3804,3,0.5194,0,70,70,14,1,stimuli/objects/taperecorder.jpg,Electronic device & accessory,old,left,105,,,,,,,,
,,,,,,,,23,277170,2021-12-21_10h58.07.111,MemLear_ses-01_part-02_label-phase2,2020.1.3,MacIntel,60,left,1.5733,2,0.0007,0,71,71,40,1,stimuli/objects/snowshoe.jpg,Outdoor activity & sport item,old,left,131,,,,,,,,
,,,,,,,,23,277170,2021-12-21_10h58.07.111,MemLear_ses-01_part-02_label-phase2,2020.1.3,MacIntel,60,right,0.9663,2,0.2147,0,72,72,49,1,stimuli/objects/carantenna.jpg,Electronic device & accessory,old,left,140,,,,,,,,
,,,,,,,,23,277170,2021-12-21_10h58.07.111,MemLear_ses-01_part-02_label-phase2,2020.1.3,MacIntel,60,right,0.8885,2,0.0008,0,73,73,11,1,stimuli/objects/wheelbarrow01.jpg,Hand labour tool & accessory,new,right,102,,,,,,,,
,,,,,,,,23,277170,2021-12-21_10h58.07.111,MemLear_ses-01_part-02_label-phase2,2020.1.3,MacIntel,60,left,2.0224,2,0.2224,0,74,74,15,1,stimuli/objects/airconditioner.jpg,Electronic device & accessory,new,right,106,,,,,,,,
,,,,,,,,23,277170,2021-12-21_10h58.07.111,MemLear_ses-01_part-02_label-phase2,2020.1.3,MacIntel,60,right,0.7361,2,0.146,0,75,75,65,1,stimuli/objects/bikepump01.jpg,Outdoor activity & sport item,old,left,156,,,,,,,,
,,,,,,,,23,277170,2021-12-21_10h58.07.111,MemLear_ses-01_part-02_label-phase2,2020.1.3,MacIntel,60,left,2.5154,2,0.2517,0,76,76,52,1,stimuli/objects/papershredder.jpg,Electronic device & accessory,new,right,143,,,,,,,,
,,,,,,,,23,277170,2021-12-21_10h58.07.111,MemLear_ses-01_part-02_label-phase2,2020.1.3,MacIntel,60,right,0.7965,2,0.082,0,77,77,86,1,stimuli/objects/corkscrew03a.jpg,Kitchen & utensil,new,right,177,,,,,,,,
,,,,,,,,23,277170,2021-12-21_10h58.07.111,MemLear_ses-01_part-02_label-phase2,2020.1.3,MacIntel,60,left,1.2595,3,0.0696,0,78,78,82,1,stimuli/objects/lightswitch01.jpg,Electronic device & accessory,old,left,173,,,,,,,,
,,,,,,,,23,277170,2021-12-21_10h58.07.111,MemLear_ses-01_part-02_label-phase2,2020.1.3,MacIntel,60,right,0.6947,2,0.3843,0,79,79,50,1,stimuli/objects/walkman.jpg,Electronic device & accessory,old,left,141,,,,,,,,
,,,,,,,,23,277170,2021-12-21_10h58.07.111,MemLear_ses-01_part-02_label-phase2,2020.1.3,MacIntel,60,right,3.1079,2,0.2198,0,80,80,61,1,stimuli/objects/battery02b.jpg,Electronic device & accessory,old,left,152,,,,,,,,
,,,,,,,,23,277170,2021-12-21_10h58.07.111,MemLear_ses-01_part-02_label-phase2,2020.1.3,MacIntel,60,left,0.8962,3,0.1388,0,81,81,20,1,stimuli/objects/pot01.jpg,Kitchen & utensil,old,left,111,,,,,,,,
,,,,,,,,23,277170,2021-12-21_10h58.07.111,MemLear_ses-01_part-02_label-phase2,2020.1.3,MacIntel,60,left,1.1966,3,0.068,0,82,82,55,1,stimuli/objects/bottlecap.jpg,Kitchen & utensil,old,left,146,,,,,,,,
,,,,,,,,23,277170,2021-12-21_10h58.07.111,MemLear_ses-01_part-02_label-phase2,2020.1.3,MacIntel,60,right,0.9708,2,0.2653,0,83,83,25,1,stimuli/objects/oven.jpg,Kitchen & utensil,old,left,116,,,,,,,,
,,,,,,,,23,277170,2021-12-21_10h58.07.111,MemLear_ses-01_part-02_label-phase2,2020.1.3,MacIntel,60,right,1.6419,2,0.5392,0,84,84,8,1,stimuli/objects/snowshovel.jpg,Hand labour tool & accessory,old,left,99,,,,,,,,
,,,,,,,,23,277170,2021-12-21_10h58.07.111,MemLear_ses-01_part-02_label-phase2,2020.1.3,MacIntel,60,right,1.0091,2,0.3285,0,85,85,16,1,stimuli/objects/freezer02.jpg,Kitchen & utensil,old,left,107,,,,,,,,
,,,,,,,,23,277170,2021-12-21_10h58.07.111,MemLear_ses-01_part-02_label-phase2,2020.1.3,MacIntel,60,left,1.4841,3,0.2033,0,86,86,48,1,stimuli/objects/camera01a.jpg,Electronic device & accessory,old,left,139,,,,,,,,
,,,,,,,,23,277170,2021-12-21_10h58.07.111,MemLear_ses-01_part-02_label-phase2,2020.1.3,MacIntel,60,right,0.9465,2,0.1196,0,87,87,3,1,stimuli/objects/wafflemaker.jpg,Kitchen & utensil,new,right,94,,,,,,,,
,,,,,,,,23,277170,2021-12-21_10h58.07.111,MemLear_ses-01_part-02_label-phase2,2020.1.3,MacIntel,60,right,1.1626,3,2.1311,0,88,88,24,1,stimuli/objects/wire.jpg,Electronic device & accessory,new,right,115,,,,,,,,
,,,,,,,,23,277170,2021-12-21_10h58.07.111,MemLear_ses-01_part-02_label-phase2,2020.1.3,MacIntel,60,right,1.3282,3,1.2859,0,89,89,63,1,stimuli/objects/anchor.jpg,Outdoor activity & sport item,new,right,154,,,,,,,,
,,,,,,,,23,277170,2021-12-21_10h58.07.111,MemLear_ses-01_part-02_label-phase2,2020.1.3,MacIntel,60,,,,,,,,,,,,,,,space,2.9852,0,1,1,1,1,condition_files/ImagesforRecog4_2.csv
