illustration_loop.thisRepN,illustration_loop.thisTrialN,illustration_loop.thisN,illustration_loop.thisIndex,illustration_loop.ran,images,key,participant,Expra Code,date,expName,psychopyVersion,OS,frameRate,key_resp_4.keys,key_resp_4.corr,key_resp_4.rt,n_back_loop.thisRepN,n_back_loop.thisTrialN,n_back_loop.thisN,n_back_loop.thisIndex,n_back_loop.ran,word,CORRanswer,trialtype,hit_NoHit
0,0,0,0,1,slide 1.jpg,'space’,13,917868,2021-12-19_22h54.33.855,MemLear_ses-01_part-02_label-nBack,2020.1.3,Win32,60,,,,,,,,,,,,
0,1,1,1,1,slide 2.jpg,'l’,13,917868,2021-12-19_22h54.33.855,MemLear_ses-01_part-02_label-nBack,2020.1.3,Win32,60,,,,,,,,,,,,
0,2,2,2,1,slide 3.jpg,'l’,13,917868,2021-12-19_22h54.33.855,MemLear_ses-01_part-02_label-nBack,2020.1.3,Win32,60,,,,,,,,,,,,
0,3,3,3,1,slide 4.jpg,'l’,13,917868,2021-12-19_22h54.33.855,MemLear_ses-01_part-02_label-nBack,2020.1.3,Win32,60,,,,,,,,,,,,
0,4,4,4,1,slide 5.jpg,'d’,13,917868,2021-12-19_22h54.33.855,MemLear_ses-01_part-02_label-nBack,2020.1.3,Win32,60,,,,,,,,,,,,
0,5,5,5,1,slide 6.jpg,'l’,13,917868,2021-12-19_22h54.33.855,MemLear_ses-01_part-02_label-nBack,2020.1.3,Win32,60,,,,,,,,,,,,
,,,,,,,13,917868,2021-12-19_22h54.33.855,MemLear_ses-01_part-02_label-nBack,2020.1.3,Win32,60,"[""d""]",0,[6.427100000001474],0,0,0,0,1,bless,l,0,NoHit
,,,,,,,13,917868,2021-12-19_22h54.33.855,MemLear_ses-01_part-02_label-nBack,2020.1.3,Win32,60,"[""l""]",1,[3.2689000000022475],0,1,1,1,1,nature,l,0,NoHit
,,,,,,,13,917868,2021-12-19_22h54.33.855,MemLear_ses-01_part-02_label-nBack,2020.1.3,Win32,60,"[""l""]",1,[2.1548000000007335],0,2,2,2,1,carefree,l,0,NoHit
,,,,,,,13,917868,2021-12-19_22h54.33.855,MemLear_ses-01_part-02_label-nBack,2020.1.3,Win32,60,"[""d""]",1,[1.794699999999267],0,3,3,3,1,nature,d,1,Hit
,,,,,,,13,917868,2021-12-19_22h54.33.855,MemLear_ses-01_part-02_label-nBack,2020.1.3,Win32,60,"[""l""]",1,[3.3193999999984953],0,4,4,4,1,easygoing,l,0,NoHit
,,,,,,,13,917868,2021-12-19_22h54.33.855,MemLear_ses-01_part-02_label-nBack,2020.1.3,Win32,60,"[""l""]",1,[1.6504000000022359],0,5,5,5,1,pillow,l,0,NoHit
,,,,,,,13,917868,2021-12-19_22h54.33.855,MemLear_ses-01_part-02_label-nBack,2020.1.3,Win32,60,"[""d""]",1,[1.368300000000744],0,6,6,6,1,easygoing,d,1,Hit
,,,,,,,13,917868,2021-12-19_22h54.33.855,MemLear_ses-01_part-02_label-nBack,2020.1.3,Win32,60,"[""l""]",1,[1.4448000000007255],0,7,7,7,1,gentle,l,0,NoHit
,,,,,,,13,917868,2021-12-19_22h54.33.855,MemLear_ses-01_part-02_label-nBack,2020.1.3,Win32,60,"[""l""]",1,[1.3050000000000068],0,8,8,8,1,square,l,0,NoHit
,,,,,,,13,917868,2021-12-19_22h54.33.855,MemLear_ses-01_part-02_label-nBack,2020.1.3,Win32,60,"[""d""]",1,[1.0871999999992283],0,9,9,9,1,gentle,d,1,Hit
,,,,,,,13,917868,2021-12-19_22h54.33.855,MemLear_ses-01_part-02_label-nBack,2020.1.3,Win32,60,"[""l""]",1,[2.627600000001479],0,10,10,10,1,carefree,l,0,NoHit
,,,,,,,13,917868,2021-12-19_22h54.33.855,MemLear_ses-01_part-02_label-nBack,2020.1.3,Win32,60,"[""l""]",1,[1.1363999999985026],0,11,11,11,1,tool,l,0,NoHit
,,,,,,,13,917868,2021-12-19_22h54.33.855,MemLear_ses-01_part-02_label-nBack,2020.1.3,Win32,60,"[""l""]",1,[2.008900000002228],0,12,12,12,1,bored,l,0,NoHit
,,,,,,,13,917868,2021-12-19_22h54.33.855,MemLear_ses-01_part-02_label-nBack,2020.1.3,Win32,60,"[""d""]",1,[1.0330999999977735],0,13,13,13,1,tool,d,1,Hit
,,,,,,,13,917868,2021-12-19_22h54.33.855,MemLear_ses-01_part-02_label-nBack,2020.1.3,Win32,60,"[""l""]",1,[0.9783999999985156],0,14,14,14,1,home,l,0,NoHit
,,,,,,,13,917868,2021-12-19_22h54.33.855,MemLear_ses-01_part-02_label-nBack,2020.1.3,Win32,60,"[""l""]",1,[1.8838000000007469],0,15,15,15,1,immature,l,0,NoHit
,,,,,,,13,917868,2021-12-19_22h54.33.855,MemLear_ses-01_part-02_label-nBack,2020.1.3,Win32,60,"[""d""]",1,[1.180499999999995],0,16,16,16,1,home,d,1,Hit
,,,,,,,13,917868,2021-12-19_22h54.33.855,MemLear_ses-01_part-02_label-nBack,2020.1.3,Win32,60,"[""l""]",1,[2.2140999999977566],0,17,17,17,1,fault,l,0,NoHit
,,,,,,,13,917868,2021-12-19_22h54.33.855,MemLear_ses-01_part-02_label-nBack,2020.1.3,Win32,60,"[""l""]",1,[1.42119999999926],0,18,18,18,1,pillow,l,0,NoHit
,,,,,,,13,917868,2021-12-19_22h54.33.855,MemLear_ses-01_part-02_label-nBack,2020.1.3,Win32,60,"[""l""]",1,[1.3736000000014883],0,19,19,19,1,violin,l,0,NoHit
,,,,,,,13,917868,2021-12-19_22h54.33.855,MemLear_ses-01_part-02_label-nBack,2020.1.3,Win32,60,"[""l""]",0,[1.5883000000007428],0,20,20,20,1,violin,d,1,Hit
,,,,,,,13,917868,2021-12-19_22h54.33.855,MemLear_ses-01_part-02_label-nBack,2020.1.3,Win32,60,"[""l""]",1,[1.2949999999999875],0,21,21,21,1,tense,l,0,NoHit
,,,,,,,13,917868,2021-12-19_22h54.33.855,MemLear_ses-01_part-02_label-nBack,2020.1.3,Win32,60,"[""l""]",1,[1.2371999999992624],0,22,22,22,1,confident,l,0,NoHit
,,,,,,,13,917868,2021-12-19_22h54.33.855,MemLear_ses-01_part-02_label-nBack,2020.1.3,Win32,60,"[""l""]",1,[1.0878000000007546],0,23,23,23,1,bomb,l,0,NoHit
,,,,,,,13,917868,2021-12-19_22h54.33.855,MemLear_ses-01_part-02_label-nBack,2020.1.3,Win32,60,"[""d""]",1,[1.12919999999923],0,24,24,24,1,confident,d,1,Hit
,,,,,,,13,917868,2021-12-19_22h54.33.855,MemLear_ses-01_part-02_label-nBack,2020.1.3,Win32,60,"[""l""]",1,[1.3441999999992333],0,25,25,25,1,butterfly,l,0,NoHit
,,,,,,,13,917868,2021-12-19_22h54.33.855,MemLear_ses-01_part-02_label-nBack,2020.1.3,Win32,60,"[""l""]",1,[1.3083999999984997],0,26,26,26,1,cheer,l,0,NoHit
,,,,,,,13,917868,2021-12-19_22h54.33.855,MemLear_ses-01_part-02_label-nBack,2020.1.3,Win32,60,"[""l""]",1,[1.229599999997788],0,27,27,27,1,street,l,0,NoHit
,,,,,,,13,917868,2021-12-19_22h54.33.855,MemLear_ses-01_part-02_label-nBack,2020.1.3,Win32,60,"[""d""]",1,[2.052500000000009],0,28,28,28,1,cheer,d,1,Hit
,,,,,,,13,917868,2021-12-19_22h54.33.855,MemLear_ses-01_part-02_label-nBack,2020.1.3,Win32,60,"[""l""]",1,[1.0618000000007726],0,29,29,29,1,taxi,l,0,NoHit
,,,,,,,13,917868,2021-12-19_22h54.33.855,MemLear_ses-01_part-02_label-nBack,2020.1.3,Win32,60,"[""l""]",1,[1.1516000000014799],0,30,30,30,1,adventure,l,0,NoHit
,,,,,,,13,917868,2021-12-19_22h54.33.855,MemLear_ses-01_part-02_label-nBack,2020.1.3,Win32,60,"[""l""]",1,[1.0366999999992572],0,31,31,31,1,crutch,l,0,NoHit
,,,,,,,13,917868,2021-12-19_22h54.33.855,MemLear_ses-01_part-02_label-nBack,2020.1.3,Win32,60,"[""l""]",0,[1.2745000000000175],0,32,32,32,1,adventure,d,1,Hit
,,,,,,,13,917868,2021-12-19_22h54.33.855,MemLear_ses-01_part-02_label-nBack,2020.1.3,Win32,60,"[""l""]",1,[1.5242000000029918],0,33,33,33,1,vest,l,0,NoHit
,,,,,,,13,917868,2021-12-19_22h54.33.855,MemLear_ses-01_part-02_label-nBack,2020.1.3,Win32,60,"[""l""]",1,[1.8024999999999807],0,34,34,34,1,taxi,l,0,NoHit
,,,,,,,13,917868,2021-12-19_22h54.33.855,MemLear_ses-01_part-02_label-nBack,2020.1.3,Win32,60,"[""l""]",1,[1.5963999999985106],0,35,35,35,1,brave,l,0,NoHit
,,,,,,,13,917868,2021-12-19_22h54.33.855,MemLear_ses-01_part-02_label-nBack,2020.1.3,Win32,60,"[""l""]",1,[1.0168000000007567],0,36,36,36,1,square,l,0,NoHit
,,,,,,,13,917868,2021-12-19_22h54.33.855,MemLear_ses-01_part-02_label-nBack,2020.1.3,Win32,60,"[""d""]",1,[1.1513999999985174],0,37,37,37,1,brave,d,1,Hit
,,,,,,,13,917868,2021-12-19_22h54.33.855,MemLear_ses-01_part-02_label-nBack,2020.1.3,Win32,60,"[""l""]",1,[1.1114999999999782],0,38,38,38,1,unhappy,l,0,NoHit
,,,,,,,13,917868,2021-12-19_22h54.33.855,MemLear_ses-01_part-02_label-nBack,2020.1.3,Win32,60,"[""l""]",1,[1.2208000000007644],0,39,39,39,1,deformed,l,0,NoHit
,,,,,,,13,917868,2021-12-19_22h54.33.855,MemLear_ses-01_part-02_label-nBack,2020.1.3,Win32,60,"[""l""]",1,[1.3506999999992502],0,40,40,40,1,rifle,l,0,NoHit
,,,,,,,13,917868,2021-12-19_22h54.33.855,MemLear_ses-01_part-02_label-nBack,2020.1.3,Win32,60,"[""d""]",1,[1.126499999999993],0,41,41,41,1,deformed,d,1,Hit
,,,,,,,13,917868,2021-12-19_22h54.33.855,MemLear_ses-01_part-02_label-nBack,2020.1.3,Win32,60,"[""l""]",1,[1.7175999999977591],0,42,42,42,1,tense,l,0,NoHit
,,,,,,,13,917868,2021-12-19_22h54.33.855,MemLear_ses-01_part-02_label-nBack,2020.1.3,Win32,60,"[""l""]",1,[1.4183000000007269],0,43,43,43,1,inferior,l,0,NoHit
,,,,,,,13,917868,2021-12-19_22h54.33.855,MemLear_ses-01_part-02_label-nBack,2020.1.3,Win32,60,"[""l""]",1,[1.2176000000014824],0,44,44,44,1,exercise,l,0,NoHit
,,,,,,,13,917868,2021-12-19_22h54.33.855,MemLear_ses-01_part-02_label-nBack,2020.1.3,Win32,60,"[""d""]",1,[0.9595999999977778],0,45,45,45,1,inferior,d,1,Hit
,,,,,,,13,917868,2021-12-19_22h54.33.855,MemLear_ses-01_part-02_label-nBack,2020.1.3,Win32,60,"[""l""]",1,[1.2441999999992674],0,46,46,46,1,crutch,l,0,NoHit
,,,,,,,13,917868,2021-12-19_22h54.33.855,MemLear_ses-01_part-02_label-nBack,2020.1.3,Win32,60,"[""l""]",1,[1.1004999999999825],0,47,47,47,1,obesity,l,0,NoHit
,,,,,,,13,917868,2021-12-19_22h54.33.855,MemLear_ses-01_part-02_label-nBack,2020.1.3,Win32,60,"[""l""]",1,[1.5854000000022381],0,48,48,48,1,bless,l,0,NoHit
,,,,,,,13,917868,2021-12-19_22h54.33.855,MemLear_ses-01_part-02_label-nBack,2020.1.3,Win32,60,"[""d""]",1,[1.6020999999977903],0,49,49,49,1,obesity,d,1,Hit
,,,,,,,13,917868,2021-12-19_22h54.33.855,MemLear_ses-01_part-02_label-nBack,2020.1.3,Win32,60,"[""l""]",1,[1.020600000001508],0,50,50,50,1,pistol,l,0,NoHit
,,,,,,,13,917868,2021-12-19_22h54.33.855,MemLear_ses-01_part-02_label-nBack,2020.1.3,Win32,60,"[""l""]",1,[1.0176999999992518],0,51,51,51,1,bored,l,0,NoHit
,,,,,,,13,917868,2021-12-19_22h54.33.855,MemLear_ses-01_part-02_label-nBack,2020.1.3,Win32,60,"[""l""]",1,[1.445999999999998],0,52,52,52,1,pity,l,0,NoHit
,,,,,,,13,917868,2021-12-19_22h54.33.855,MemLear_ses-01_part-02_label-nBack,2020.1.3,Win32,60,"[""l""]",1,[1.132700000002984],0,53,53,53,1,politeness,l,0,NoHit
,,,,,,,13,917868,2021-12-19_22h54.33.855,MemLear_ses-01_part-02_label-nBack,2020.1.3,Win32,60,"[""d""]",1,[1.171900000002239],0,54,54,54,1,pity,d,1,Hit
,,,,,,,13,917868,2021-12-19_22h54.33.855,MemLear_ses-01_part-02_label-nBack,2020.1.3,Win32,60,"[""l""]",1,[1.658200000002978],0,55,55,55,1,beautiful,l,0,NoHit
,,,,,,,13,917868,2021-12-19_22h54.33.855,MemLear_ses-01_part-02_label-nBack,2020.1.3,Win32,60,"[""l""]",1,[1.4780000000000086],0,56,56,56,1,street,l,0,NoHit
,,,,,,,13,917868,2021-12-19_22h54.33.855,MemLear_ses-01_part-02_label-nBack,2020.1.3,Win32,60,"[""d""]",1,[0.9110000000000014],0,57,57,57,1,beautiful,d,1,Hit
,,,,,,,13,917868,2021-12-19_22h54.33.855,MemLear_ses-01_part-02_label-nBack,2020.1.3,Win32,60,"[""l""]",1,[1.0875999999977637],0,58,58,58,1,aroused,l,0,NoHit
,,,,,,,13,917868,2021-12-19_22h54.33.855,MemLear_ses-01_part-02_label-nBack,2020.1.3,Win32,60,"[""l""]",1,[0.9580999999977564],0,59,59,59,1,demon,l,0,NoHit
,,,,,,,13,917868,2021-12-19_22h54.33.855,MemLear_ses-01_part-02_label-nBack,2020.1.3,Win32,60,"[""d""]",1,[1.072900000002221],0,60,60,60,1,aroused,d,1,Hit
,,,,,,,13,917868,2021-12-19_22h54.33.855,MemLear_ses-01_part-02_label-nBack,2020.1.3,Win32,60,"[""l""]",1,[1.0278999999985103],0,61,61,61,1,cash,l,0,NoHit
,,,,,,,13,917868,2021-12-19_22h54.33.855,MemLear_ses-01_part-02_label-nBack,2020.1.3,Win32,60,"[""l""]",1,[1.1006999999992502],0,62,62,62,1,immature,l,0,NoHit
,,,,,,,13,917868,2021-12-19_22h54.33.855,MemLear_ses-01_part-02_label-nBack,2020.1.3,Win32,60,"[""l""]",1,[1.141999999999996],0,63,63,63,1,cheer,l,0,NoHit
,,,,,,,13,917868,2021-12-19_22h54.33.855,MemLear_ses-01_part-02_label-nBack,2020.1.3,Win32,60,"[""l""]",0,[1.1740000000000066],0,64,64,64,1,cheer,d,1,Hit
,,,,,,,13,917868,2021-12-19_22h54.33.855,MemLear_ses-01_part-02_label-nBack,2020.1.3,Win32,60,"[""l""]",1,[1.0786000000015008],0,65,65,65,1,controlling,l,0,NoHit
,,,,,,,13,917868,2021-12-19_22h54.33.855,MemLear_ses-01_part-02_label-nBack,2020.1.3,Win32,60,"[""l""]",1,[0.9678999999985081],0,66,66,66,1,messy,l,0,NoHit
,,,,,,,13,917868,2021-12-19_22h54.33.855,MemLear_ses-01_part-02_label-nBack,2020.1.3,Win32,60,"[""l""]",1,[1.352499999999992],0,67,67,67,1,cliff,l,0,NoHit
,,,,,,,13,917868,2021-12-19_22h54.33.855,MemLear_ses-01_part-02_label-nBack,2020.1.3,Win32,60,"[""l""]",1,[1.0692000000029793],0,68,68,68,1,butterfly,l,0,NoHit
,,,,,,,13,917868,2021-12-19_22h54.33.855,MemLear_ses-01_part-02_label-nBack,2020.1.3,Win32,60,"[""d""]",1,[1.0111999999992634],0,69,69,69,1,cliff,d,1,Hit
,,,,,,,13,917868,2021-12-19_22h54.33.855,MemLear_ses-01_part-02_label-nBack,2020.1.3,Win32,60,"[""l""]",1,[1.0348999999985153],0,70,70,70,1,erotic,l,0,NoHit
,,,,,,,13,917868,2021-12-19_22h54.33.855,MemLear_ses-01_part-02_label-nBack,2020.1.3,Win32,60,"[""l""]",1,[1.1078999999985228],0,71,71,71,1,vest,l,0,NoHit
,,,,,,,13,917868,2021-12-19_22h54.33.855,MemLear_ses-01_part-02_label-nBack,2020.1.3,Win32,60,"[""l""]",1,[0.9217999999970061],0,72,72,72,1,dazzle,l,0,NoHit
,,,,,,,13,917868,2021-12-19_22h54.33.855,MemLear_ses-01_part-02_label-nBack,2020.1.3,Win32,60,"[""l""]",1,[1.3844000000022163],0,73,73,73,1,disloyal,l,0,NoHit
,,,,,,,13,917868,2021-12-19_22h54.33.855,MemLear_ses-01_part-02_label-nBack,2020.1.3,Win32,60,"[""d""]",1,[0.8246000000014817],0,74,74,74,1,dazzle,d,1,Hit
,,,,,,,13,917868,2021-12-19_22h54.33.855,MemLear_ses-01_part-02_label-nBack,2020.1.3,Win32,60,"[""l""]",1,[0.9335000000000093],0,75,75,75,1,defiant,l,0,NoHit
,,,,,,,13,917868,2021-12-19_22h54.33.855,MemLear_ses-01_part-02_label-nBack,2020.1.3,Win32,60,"[""l""]",1,[1.0894999999999868],0,76,76,76,1,fault,l,0,NoHit
,,,,,,,13,917868,2021-12-19_22h54.33.855,MemLear_ses-01_part-02_label-nBack,2020.1.3,Win32,60,"[""d""]",1,[0.8697000000029789],0,77,77,77,1,defiant,d,1,Hit
,,,,,,,13,917868,2021-12-19_22h54.33.855,MemLear_ses-01_part-02_label-nBack,2020.1.3,Win32,60,"[""l""]",1,[0.7399000000022511],0,78,78,78,1,shotgun,l,0,NoHit
,,,,,,,13,917868,2021-12-19_22h54.33.855,MemLear_ses-01_part-02_label-nBack,2020.1.3,Win32,60,"[""l""]",1,[0.9593000000007521],0,79,79,79,1,revolt,l,0,NoHit
,,,,,,,13,917868,2021-12-19_22h54.33.855,MemLear_ses-01_part-02_label-nBack,2020.1.3,Win32,60,"[""l""]",1,[0.9324000000022181],0,80,80,80,1,unhappy,l,0,NoHit
,,,,,,,13,917868,2021-12-19_22h54.33.855,MemLear_ses-01_part-02_label-nBack,2020.1.3,Win32,60,"[""d""]",1,[0.8293000000007282],0,81,81,81,1,revolt,d,1,Hit
,,,,,,,13,917868,2021-12-19_22h54.33.855,MemLear_ses-01_part-02_label-nBack,2020.1.3,Win32,60,"[""l""]",1,[1.3099000000022443],0,82,82,82,1,car,l,0,NoHit
,,,,,,,13,917868,2021-12-19_22h54.33.855,MemLear_ses-01_part-02_label-nBack,2020.1.3,Win32,60,"[""l""]",1,[1.1289000000022327],0,83,83,83,1,fight,l,0,NoHit
,,,,,,,13,917868,2021-12-19_22h54.33.855,MemLear_ses-01_part-02_label-nBack,2020.1.3,Win32,60,"[""l""]",1,[1.5443999999984612],0,84,84,84,1,obsession,l,0,NoHit
,,,,,,,13,917868,2021-12-19_22h54.33.855,MemLear_ses-01_part-02_label-nBack,2020.1.3,Win32,60,"[""l""]",0,[1.0507999999970252],0,85,85,85,1,obsession,d,1,Hit
,,,,,,,13,917868,2021-12-19_22h54.33.855,MemLear_ses-01_part-02_label-nBack,2020.1.3,Win32,60,"[""l""]",1,[1.3344000000022334],0,86,86,86,1,messy,l,0,NoHit
,,,,,,,13,917868,2021-12-19_22h54.33.855,MemLear_ses-01_part-02_label-nBack,2020.1.3,Win32,60,"[""l""]",1,[0.9409000000022729],0,87,87,87,1,anger,l,0,NoHit
,,,,,,,13,917868,2021-12-19_22h54.33.855,MemLear_ses-01_part-02_label-nBack,2020.1.3,Win32,60,"[""l""]",1,[0.9184999999999945],0,88,88,88,1,exercise,l,0,NoHit
,,,,,,,13,917868,2021-12-19_22h54.33.855,MemLear_ses-01_part-02_label-nBack,2020.1.3,Win32,60,"[""d""]",1,[1.0401999999992313],0,89,89,89,1,anger,d,1,Hit
,,,,,,,13,917868,2021-12-19_22h54.33.855,MemLear_ses-01_part-02_label-nBack,2020.1.3,Win32,60,"[""l""]",1,[0.8278000000007637],0,90,90,90,1,suspicious,l,0,NoHit
,,,,,,,13,917868,2021-12-19_22h54.33.855,MemLear_ses-01_part-02_label-nBack,2020.1.3,Win32,60,"[""l""]",1,[0.9052000000029921],0,91,91,91,1,politeness,l,0,NoHit
,,,,,,,13,917868,2021-12-19_22h54.33.855,MemLear_ses-01_part-02_label-nBack,2020.1.3,Win32,60,"[""d""]",1,[2.3565999999977976],0,92,92,92,1,suspicious,d,1,Hit
,,,,,,,13,917868,2021-12-19_22h54.33.855,MemLear_ses-01_part-02_label-nBack,2020.1.3,Win32,60,"[""l""]",1,[0.8905999999977894],0,93,93,93,1,shark,l,0,NoHit
,,,,,,,13,917868,2021-12-19_22h54.33.855,MemLear_ses-01_part-02_label-nBack,2020.1.3,Win32,60,"[""l""]",1,[0.888499999999965],0,94,94,94,1,detest,l,0,NoHit
,,,,,,,13,917868,2021-12-19_22h54.33.855,MemLear_ses-01_part-02_label-nBack,2020.1.3,Win32,60,"[""d""]",1,[0.7330000000000041],0,95,95,95,1,shark,d,1,Hit
,,,,,,,13,917868,2021-12-19_22h54.33.855,MemLear_ses-01_part-02_label-nBack,2020.1.3,Win32,60,"[""l""]",1,[0.6706999999992718],0,96,96,96,1,cash,l,0,NoHit
,,,,,,,13,917868,2021-12-19_22h54.33.855,MemLear_ses-01_part-02_label-nBack,2020.1.3,Win32,60,"[""l""]",1,[0.727800000000741],0,97,97,97,1,cancer,l,0,NoHit
,,,,,,,13,917868,2021-12-19_22h54.33.855,MemLear_ses-01_part-02_label-nBack,2020.1.3,Win32,60,"[""l""]",1,[1.200399999998524],0,98,98,98,1,pistol,l,0,NoHit
,,,,,,,13,917868,2021-12-19_22h54.33.855,MemLear_ses-01_part-02_label-nBack,2020.1.3,Win32,60,"[""d""]",1,[0.7522999999970352],0,99,99,99,1,cancer,d,1,Hit
