"participant","Expra.Code","pract_resp.keys","pract_resp.corr","pract_resp.rt","myownaccuracyCORR","character","left_categ","centleft_categ","centright_categ","right_categ","trial_cond","corr_ans","corr_ans_num","type","img","task_response.keys","task_response.corr","task_response.rt","condition"
26,378308,1,1,1.941,1,"stimuli/m_red.jpg","stimuli/Food.png","stimuli/Gamestoy & entertainment.png","stimuli/Vehicle.png","stimuli/Clothing.png",1,"Food",1,1,"stimuli/objects/chocolatecroissant.jpg",NA,NA,NA,NA
26,378308,1,0,0.7089,1,"stimuli/m_red.jpg","stimuli/Clothing.png","stimuli/Food.png","stimuli/Gamestoy & entertainment.png","stimuli/Vehicle.png",0,"Vehicle",4,0,"stimuli/objects/tricycle.jpg",NA,NA,NA,NA
26,378308,3,0,1.399,1,"stimuli/m_blue.jpg","stimuli/Vehicle.png","stimuli/Clothing.png","stimuli/Gamestoy & entertainment.png","stimuli/Food.png",0,"Food",4,0,"stimuli/objects/cracker02.jpg",NA,NA,NA,NA
26,378308,2,0,3.781,0,"stimuli/m_red.jpg","stimuli/Clothing.png","stimuli/Vehicle.png","stimuli/Gamestoy & entertainment.png","stimuli/Food.png",1,"Food",4,1,"stimuli/objects/hotdog.jpg",NA,NA,NA,NA
26,378308,1,0,3.3515,0,"stimuli/m_red.jpg","stimuli/Clothing.png","stimuli/Gamestoy & entertainment.png","stimuli/Food.png","stimuli/Vehicle.png",1,"Food",3,1,"stimuli/objects/kiwi03.jpg",NA,NA,NA,NA
26,378308,3,1,2.0119,1,"stimuli/m_red.jpg","stimuli/Vehicle.png","stimuli/Gamestoy & entertainment.png","stimuli/Food.png","stimuli/Clothing.png",1,"Food",3,1,"stimuli/objects/greenolive.jpg",NA,NA,NA,NA
26,378308,4,1,1.8792,1,"stimuli/m_blue.jpg","stimuli/Food.png","stimuli/Clothing.png","stimuli/Vehicle.png","stimuli/Gamestoy & entertainment.png",1,"Gamestoy & entertainment",4,1,"stimuli/objects/paperairplane.jpg",NA,NA,NA,NA
26,378308,4,0,0.0065,0,"stimuli/m_blue.jpg","stimuli/Vehicle.png","stimuli/Gamestoy & entertainment.png","stimuli/Food.png","stimuli/Clothing.png",1,"Gamestoy & entertainment",2,1,"stimuli/objects/toyanimal02.jpg",NA,NA,NA,NA
26,378308,3,0,1.5992,0,"stimuli/m_red.jpg","stimuli/Vehicle.png","stimuli/Clothing.png","stimuli/Gamestoy & entertainment.png","stimuli/Food.png",1,"Food",4,1,"stimuli/objects/casabamelon.jpg",NA,NA,NA,NA
26,378308,4,0,1.6343,0,"stimuli/m_blue.jpg","stimuli/Gamestoy & entertainment.png","stimuli/Clothing.png","stimuli/Vehicle.png","stimuli/Food.png",1,"Gamestoy & entertainment",1,1,"stimuli/objects/paddleball.jpg",NA,NA,NA,NA
26,378308,1,1,1.6129,1,"stimuli/m_blue.jpg","stimuli/Gamestoy & entertainment.png","stimuli/Clothing.png","stimuli/Food.png","stimuli/Vehicle.png",1,"Gamestoy & entertainment",1,1,"stimuli/objects/rockinghorse.jpg",NA,NA,NA,NA
26,378308,4,0,2.3381,0,"stimuli/m_red.jpg","stimuli/Vehicle.png","stimuli/Food.png","stimuli/Clothing.png","stimuli/Gamestoy & entertainment.png",1,"Food",2,1,"stimuli/objects/arugula.jpg",NA,NA,NA,NA
26,378308,2,0,3.8822,0,"stimuli/m_blue.jpg","stimuli/Food.png","stimuli/Clothing.png","stimuli/Gamestoy & entertainment.png","stimuli/Vehicle.png",1,"Gamestoy & entertainment",3,1,"stimuli/objects/dartboard.jpg",NA,NA,NA,NA
26,378308,2,0,1.4261,0,"stimuli/m_red.jpg","stimuli/Clothing.png","stimuli/Gamestoy & entertainment.png","stimuli/Vehicle.png","stimuli/Food.png",1,"Food",4,1,"stimuli/objects/chickenshishkebab.jpg",NA,NA,NA,NA
26,378308,2,0,1.785,0,"stimuli/m_red.jpg","stimuli/Clothing.png","stimuli/Gamestoy & entertainment.png","stimuli/Food.png","stimuli/Vehicle.png",1,"Food",3,1,"stimuli/objects/relish.jpg",NA,NA,NA,NA
26,378308,1,0,1.0333,0,"stimuli/m_blue.jpg","stimuli/Food.png","stimuli/Gamestoy & entertainment.png","stimuli/Clothing.png","stimuli/Vehicle.png",1,"Gamestoy & entertainment",2,1,"stimuli/objects/toyanimal01.jpg",NA,NA,NA,NA
26,378308,4,1,1.7888,0,"stimuli/m_red.jpg","stimuli/Food.png","stimuli/Vehicle.png","stimuli/Clothing.png","stimuli/Gamestoy & entertainment.png",0,"Gamestoy & entertainment",4,0,"stimuli/objects/toyshape.jpg",NA,NA,NA,NA
26,378308,4,0,1.6769,0,"stimuli/m_blue.jpg","stimuli/Food.png","stimuli/Gamestoy & entertainment.png","stimuli/Vehicle.png","stimuli/Clothing.png",1,"Gamestoy & entertainment",2,1,"stimuli/objects/rattle.jpg",NA,NA,NA,NA
26,378308,NA,0,NA,0,"stimuli/m_blue.jpg","stimuli/Clothing.png","stimuli/Food.png","stimuli/Gamestoy & entertainment.png","stimuli/Vehicle.png",0,"Vehicle",4,0,"stimuli/objects/cementtruck.jpg",NA,NA,NA,NA
26,378308,1,1,1.7982,0,"stimuli/m_red.jpg","stimuli/Vehicle.png","stimuli/Gamestoy & entertainment.png","stimuli/Clothing.png","stimuli/Food.png",0,"Vehicle",1,0,"stimuli/objects/scissorlift.jpg",NA,NA,NA,NA
26,378308,3,0,1.9871,0,"stimuli/m_blue.jpg","stimuli/Gamestoy & entertainment.png","stimuli/Food.png","stimuli/Vehicle.png","stimuli/Clothing.png",1,"Gamestoy & entertainment",1,1,"stimuli/objects/toydinosaur.jpg",NA,NA,NA,NA
26,378308,4,1,2.3474,1,"stimuli/m_blue.jpg","stimuli/Clothing.png","stimuli/Vehicle.png","stimuli/Food.png","stimuli/Gamestoy & entertainment.png",1,"Gamestoy & entertainment",4,1,"stimuli/objects/sandbagthrowgame.jpg",NA,NA,NA,NA
26,378308,2,0,1.3445,1,"stimuli/m_blue.jpg","stimuli/Food.png","stimuli/Gamestoy & entertainment.png","stimuli/Clothing.png","stimuli/Vehicle.png",0,"Clothing",3,0,"stimuli/objects/hikingshoe01.jpg",NA,NA,NA,NA
26,378308,2,0,1.8268,0,"stimuli/m_blue.jpg","stimuli/Food.png","stimuli/Clothing.png","stimuli/Vehicle.png","stimuli/Gamestoy & entertainment.png",1,"Gamestoy & entertainment",4,1,"stimuli/objects/beachpaddle01a.jpg",NA,NA,NA,NA
26,378308,2,0,1.9943,0,"stimuli/m_red.jpg","stimuli/Food.png","stimuli/Gamestoy & entertainment.png","stimuli/Clothing.png","stimuli/Vehicle.png",1,"Food",1,1,"stimuli/objects/apricot.jpg",NA,NA,NA,NA
26,378308,1,1,1.399,0,"stimuli/m_blue.jpg","stimuli/Food.png","stimuli/Vehicle.png","stimuli/Gamestoy & entertainment.png","stimuli/Clothing.png",0,"Food",1,0,"stimuli/objects/croissant01.jpg",NA,NA,NA,NA
26,378308,2,1,1.7046,1,"stimuli/m_red.jpg","stimuli/Clothing.png","stimuli/Food.png","stimuli/Vehicle.png","stimuli/Gamestoy & entertainment.png",1,"Food",2,1,"stimuli/objects/icecreamcone01a.jpg",NA,NA,NA,NA
26,378308,2,0,1.1399,1,"stimuli/m_blue.jpg","stimuli/Clothing.png","stimuli/Food.png","stimuli/Vehicle.png","stimuli/Gamestoy & entertainment.png",0,"Clothing",1,0,"stimuli/objects/tie02.jpg",NA,NA,NA,NA
26,378308,3,0,2.0146,0,"stimuli/m_blue.jpg","stimuli/Vehicle.png","stimuli/Gamestoy & entertainment.png","stimuli/Clothing.png","stimuli/Food.png",1,"Gamestoy & entertainment",2,1,"stimuli/objects/marble.jpg",NA,NA,NA,NA
26,378308,2,0,3.735,0,"stimuli/m_red.jpg","stimuli/Gamestoy & entertainment.png","stimuli/Vehicle.png","stimuli/Food.png","stimuli/Clothing.png",1,"Food",3,1,"stimuli/objects/baguette01.jpg",NA,NA,NA,NA
26,378308,3,0,1.7254,0,"stimuli/m_blue.jpg","stimuli/Gamestoy & entertainment.png","stimuli/Vehicle.png","stimuli/Food.png","stimuli/Clothing.png",1,"Gamestoy & entertainment",1,1,"stimuli/objects/pusharoundtoy.jpg",NA,NA,NA,NA
26,378308,2,0,3.4622,0,"stimuli/m_blue.jpg","stimuli/Food.png","stimuli/Vehicle.png","stimuli/Clothing.png","stimuli/Gamestoy & entertainment.png",1,"Gamestoy & entertainment",4,1,"stimuli/objects/puzzlepiece.jpg",NA,NA,NA,NA
26,378308,1,1,1.8672,1,"stimuli/m_blue.jpg","stimuli/Gamestoy & entertainment.png","stimuli/Vehicle.png","stimuli/Clothing.png","stimuli/Food.png",1,"Gamestoy & entertainment",1,1,"stimuli/objects/interlockingbuildingblock03b.jpg",NA,NA,NA,NA
26,378308,4,1,1.369,1,"stimuli/m_blue.jpg","stimuli/Vehicle.png","stimuli/Food.png","stimuli/Clothing.png","stimuli/Gamestoy & entertainment.png",1,"Gamestoy & entertainment",4,1,"stimuli/objects/airhockeytable.jpg",NA,NA,NA,NA
26,378308,3,0,1.9355,0,"stimuli/m_red.jpg","stimuli/Vehicle.png","stimuli/Food.png","stimuli/Gamestoy & entertainment.png","stimuli/Clothing.png",1,"Food",2,1,"stimuli/objects/tortilla.jpg",NA,NA,NA,NA
26,378308,2,0,0.8274,0,"stimuli/m_red.jpg","stimuli/Clothing.png","stimuli/Vehicle.png","stimuli/Gamestoy & entertainment.png","stimuli/Food.png",0,"Gamestoy & entertainment",3,0,"stimuli/objects/chessknight03a.jpg",NA,NA,NA,NA
26,378308,3,1,0.7932,1,"stimuli/m_blue.jpg","stimuli/Clothing.png","stimuli/Food.png","stimuli/Gamestoy & entertainment.png","stimuli/Vehicle.png",1,"Gamestoy & entertainment",3,1,"stimuli/objects/toyanimal05.jpg",NA,NA,NA,NA
26,378308,4,1,1.9488,1,"stimuli/m_blue.jpg","stimuli/Vehicle.png","stimuli/Food.png","stimuli/Clothing.png","stimuli/Gamestoy & entertainment.png",1,"Gamestoy & entertainment",4,1,"stimuli/objects/puppettheatre.jpg",NA,NA,NA,NA
26,378308,4,1,2.8023,1,"stimuli/m_blue.jpg","stimuli/Gamestoy & entertainment.png","stimuli/Clothing.png","stimuli/Vehicle.png","stimuli/Food.png",0,"Food",4,0,"stimuli/objects/salsa.jpg",NA,NA,NA,NA
26,378308,NA,0,NA,0,"stimuli/m_red.jpg","stimuli/Gamestoy & entertainment.png","stimuli/Vehicle.png","stimuli/Clothing.png","stimuli/Food.png",1,"Food",4,1,"stimuli/objects/walnut01c.jpg",NA,NA,NA,NA
26,378308,4,1,1.2939,1,"stimuli/m_red.jpg","stimuli/Gamestoy & entertainment.png","stimuli/Clothing.png","stimuli/Vehicle.png","stimuli/Food.png",1,"Food",4,1,"stimuli/objects/potato02b.jpg",NA,NA,NA,NA
26,378308,4,0,0.7842,1,"stimuli/m_blue.jpg","stimuli/Clothing.png","stimuli/Vehicle.png","stimuli/Gamestoy & entertainment.png","stimuli/Food.png",0,"Clothing",1,0,"stimuli/objects/sheriffhat.jpg",NA,NA,NA,NA
26,378308,3,0,1.7436,0,"stimuli/m_red.jpg","stimuli/Vehicle.png","stimuli/Gamestoy & entertainment.png","stimuli/Clothing.png","stimuli/Food.png",1,"Food",4,1,"stimuli/objects/spaghetti01.jpg",NA,NA,NA,NA
26,378308,4,1,2.3368,1,"stimuli/m_red.jpg","stimuli/Gamestoy & entertainment.png","stimuli/Vehicle.png","stimuli/Clothing.png","stimuli/Food.png",1,"Food",4,1,"stimuli/objects/zucchini01.jpg",NA,NA,NA,NA
26,378308,3,1,2.6993,1,"stimuli/m_red.jpg","stimuli/Gamestoy & entertainment.png","stimuli/Vehicle.png","stimuli/Food.png","stimuli/Clothing.png",1,"Food",3,1,"stimuli/objects/donut.jpg",NA,NA,NA,NA
26,378308,3,0,0.7042,0,"stimuli/m_blue.jpg","stimuli/Clothing.png","stimuli/Gamestoy & entertainment.png","stimuli/Food.png","stimuli/Vehicle.png",1,"Gamestoy & entertainment",2,1,"stimuli/objects/bridgestick.jpg",NA,NA,NA,NA
26,378308,NA,0,NA,0,"stimuli/m_red.jpg","stimuli/Food.png","stimuli/Clothing.png","stimuli/Vehicle.png","stimuli/Gamestoy & entertainment.png",1,"Food",1,1,"stimuli/objects/cookie01.jpg",NA,NA,NA,NA
26,378308,2,0,0.8681,0,"stimuli/m_red.jpg","stimuli/Clothing.png","stimuli/Food.png","stimuli/Vehicle.png","stimuli/Gamestoy & entertainment.png",0,"Gamestoy & entertainment",4,0,"stimuli/objects/rubikcube.jpg",NA,NA,NA,NA
26,378308,4,0,0.8593,0,"stimuli/m_red.jpg","stimuli/Clothing.png","stimuli/Vehicle.png","stimuli/Food.png","stimuli/Gamestoy & entertainment.png",1,"Food",3,1,"stimuli/objects/grape01.jpg",NA,NA,NA,NA
26,378308,4,0,2.4864,0,"stimuli/m_blue.jpg","stimuli/Vehicle.png","stimuli/Gamestoy & entertainment.png","stimuli/Clothing.png","stimuli/Food.png",0,"Vehicle",1,0,"stimuli/objects/schoolbus.jpg",NA,NA,NA,NA
26,378308,2,0,3.0734,0,"stimuli/m_blue.jpg","stimuli/Gamestoy & entertainment.png","stimuli/Vehicle.png","stimuli/Food.png","stimuli/Clothing.png",1,"Gamestoy & entertainment",1,1,"stimuli/objects/pooltable.jpg",NA,NA,NA,NA
26,378308,2,1,2.7306,0,"stimuli/m_red.jpg","stimuli/Food.png","stimuli/Gamestoy & entertainment.png","stimuli/Clothing.png","stimuli/Vehicle.png",0,"Gamestoy & entertainment",2,0,"stimuli/objects/toyanimal03.jpg",NA,NA,NA,NA
26,378308,2,0,0.8685,0,"stimuli/m_red.jpg","stimuli/Food.png","stimuli/Clothing.png","stimuli/Vehicle.png","stimuli/Gamestoy & entertainment.png",1,"Food",1,1,"stimuli/objects/almond.jpg",NA,NA,NA,NA
26,378308,4,0,2.2924,0,"stimuli/m_blue.jpg","stimuli/Clothing.png","stimuli/Vehicle.png","stimuli/Gamestoy & entertainment.png","stimuli/Food.png",1,"Gamestoy & entertainment",3,1,"stimuli/objects/jokercard.jpg",NA,NA,NA,NA
26,378308,4,1,0.5497,0,"stimuli/m_red.jpg","stimuli/Food.png","stimuli/Vehicle.png","stimuli/Gamestoy & entertainment.png","stimuli/Clothing.png",0,"Clothing",4,0,"stimuli/objects/moccasin.jpg",NA,NA,NA,NA
26,378308,4,0,3.1911,0,"stimuli/m_red.jpg","stimuli/Clothing.png","stimuli/Gamestoy & entertainment.png","stimuli/Vehicle.png","stimuli/Food.png",0,"Vehicle",3,0,"stimuli/objects/tractor.jpg",NA,NA,NA,NA
26,378308,3,0,2.5011,0,"stimuli/m_blue.jpg","stimuli/Food.png","stimuli/Gamestoy & entertainment.png","stimuli/Vehicle.png","stimuli/Clothing.png",1,"Gamestoy & entertainment",2,1,"stimuli/objects/bowlingpin.jpg",NA,NA,NA,NA
26,378308,NA,0,NA,0,"stimuli/m_red.jpg","stimuli/Vehicle.png","stimuli/Gamestoy & entertainment.png","stimuli/Food.png","stimuli/Clothing.png",0,"Vehicle",1,0,"stimuli/objects/gardenutilityvehicle.jpg",NA,NA,NA,NA
26,378308,2,0,1.0956,0,"stimuli/m_blue.jpg","stimuli/Vehicle.png","stimuli/Gamestoy & entertainment.png","stimuli/Food.png","stimuli/Clothing.png",0,"Vehicle",1,0,"stimuli/objects/windsurfboard.jpg",NA,NA,NA,NA
26,378308,NA,0,NA,0,"stimuli/m_red.jpg","stimuli/Food.png","stimuli/Gamestoy & entertainment.png","stimuli/Vehicle.png","stimuli/Clothing.png",1,"Food",1,1,"stimuli/objects/eggnoodle.jpg",NA,NA,NA,NA
26,378308,3,0,2.4901,0,"stimuli/m_blue.jpg","stimuli/Clothing.png","stimuli/Gamestoy & entertainment.png","stimuli/Food.png","stimuli/Vehicle.png",1,"Gamestoy & entertainment",2,1,"stimuli/objects/sandshovel02a.jpg",NA,NA,NA,NA
26,378308,3,0,1.5396,0,"stimuli/m_red.jpg","stimuli/Gamestoy & entertainment.png","stimuli/Clothing.png","stimuli/Vehicle.png","stimuli/Food.png",0,"Clothing",2,0,"stimuli/objects/soccercleat01.jpg",NA,NA,NA,NA
26,378308,2,1,2.5569,0,"stimuli/m_red.jpg","stimuli/Gamestoy & entertainment.png","stimuli/Clothing.png","stimuli/Food.png","stimuli/Vehicle.png",0,"Clothing",2,0,"stimuli/objects/witchhat.jpg",NA,NA,NA,NA
26,378308,2,1,0.4422,1,"stimuli/m_blue.jpg","stimuli/Clothing.png","stimuli/Gamestoy & entertainment.png","stimuli/Vehicle.png","stimuli/Food.png",1,"Gamestoy & entertainment",2,1,"stimuli/objects/highstrikergame.jpg",NA,NA,NA,NA
26,378308,NA,0,NA,0,"stimuli/m_red.jpg","stimuli/Gamestoy & entertainment.png","stimuli/Food.png","stimuli/Vehicle.png","stimuli/Clothing.png",1,"Food",2,1,"stimuli/objects/pecan02.jpg",NA,NA,NA,NA
26,378308,2,0,2.8113,0,"stimuli/m_blue.jpg","stimuli/Vehicle.png","stimuli/Food.png","stimuli/Gamestoy & entertainment.png","stimuli/Clothing.png",1,"Gamestoy & entertainment",3,1,"stimuli/objects/pacifier02d.jpg",NA,NA,NA,NA
26,378308,3,0,1.4973,0,"stimuli/m_blue.jpg","stimuli/Clothing.png","stimuli/Food.png","stimuli/Vehicle.png","stimuli/Gamestoy & entertainment.png",1,"Gamestoy & entertainment",4,1,"stimuli/objects/pooltriangle.jpg",NA,NA,NA,NA
26,378308,1,0,3.6725,0,"stimuli/m_red.jpg","stimuli/Vehicle.png","stimuli/Clothing.png","stimuli/Gamestoy & entertainment.png","stimuli/Food.png",0,"Clothing",2,0,"stimuli/objects/sock01a.jpg",NA,NA,NA,NA
26,378308,1,0,3.8129,0,"stimuli/m_red.jpg","stimuli/Gamestoy & entertainment.png","stimuli/Food.png","stimuli/Clothing.png","stimuli/Vehicle.png",1,"Food",2,1,"stimuli/objects/kiwi01a.jpg",NA,NA,NA,NA
26,378308,NA,0,NA,0,"stimuli/m_blue.jpg","stimuli/Vehicle.png","stimuli/Clothing.png","stimuli/Gamestoy & entertainment.png","stimuli/Food.png",1,"Gamestoy & entertainment",3,1,"stimuli/objects/playingcard.jpg",NA,NA,NA,NA
26,378308,2,0,1.3269,0,"stimuli/m_blue.jpg","stimuli/Clothing.png","stimuli/Gamestoy & entertainment.png","stimuli/Vehicle.png","stimuli/Food.png",0,"Vehicle",3,0,"stimuli/objects/wheelchair.jpg",NA,NA,NA,NA
26,378308,3,0,2.4067,0,"stimuli/m_blue.jpg","stimuli/Gamestoy & entertainment.png","stimuli/Vehicle.png","stimuli/Clothing.png","stimuli/Food.png",1,"Gamestoy & entertainment",1,1,"stimuli/objects/toytractor01b.jpg",NA,NA,NA,NA
26,378308,4,0,1.5494,0,"stimuli/m_blue.jpg","stimuli/Gamestoy & entertainment.png","stimuli/Food.png","stimuli/Clothing.png","stimuli/Vehicle.png",1,"Gamestoy & entertainment",1,1,"stimuli/objects/playground.jpg",NA,NA,NA,NA
26,378308,NA,0,NA,0,"stimuli/m_red.jpg","stimuli/Food.png","stimuli/Clothing.png","stimuli/Gamestoy & entertainment.png","stimuli/Vehicle.png",1,"Food",1,1,"stimuli/objects/frenchfries.jpg",NA,NA,NA,NA
26,378308,1,1,2.6984,1,"stimuli/m_red.jpg","stimuli/Food.png","stimuli/Vehicle.png","stimuli/Clothing.png","stimuli/Gamestoy & entertainment.png",1,"Food",1,1,"stimuli/objects/sausage.jpg",NA,NA,NA,NA
26,378308,2,1,1.4809,1,"stimuli/m_red.jpg","stimuli/Clothing.png","stimuli/Food.png","stimuli/Gamestoy & entertainment.png","stimuli/Vehicle.png",1,"Food",2,1,"stimuli/objects/sunflowerseeds.jpg",NA,NA,NA,NA
26,378308,2,0,2.0539,1,"stimuli/m_blue.jpg","stimuli/Food.png","stimuli/Vehicle.png","stimuli/Clothing.png","stimuli/Gamestoy & entertainment.png",0,"Clothing",3,0,"stimuli/objects/manshoe.jpg",NA,NA,NA,NA
26,378308,2,1,1.2842,1,"stimuli/m_red.jpg","stimuli/Vehicle.png","stimuli/Food.png","stimuli/Clothing.png","stimuli/Gamestoy & entertainment.png",1,"Food",2,1,"stimuli/objects/blueberry01.jpg",NA,NA,NA,NA
26,378308,3,1,2.7007,1,"stimuli/m_red.jpg","stimuli/Gamestoy & entertainment.png","stimuli/Clothing.png","stimuli/Food.png","stimuli/Vehicle.png",1,"Food",3,1,"stimuli/objects/broccoli01a.jpg",NA,NA,NA,NA
26,378308,3,1,2.6975,1,"stimuli/m_blue.jpg","stimuli/Gamestoy & entertainment.png","stimuli/Clothing.png","stimuli/Food.png","stimuli/Vehicle.png",0,"Food",3,0,"stimuli/objects/honeydewmelon.jpg",NA,NA,NA,NA
26,378308,2,0,3.6119,0,"stimuli/m_red.jpg","stimuli/Food.png","stimuli/Gamestoy & entertainment.png","stimuli/Vehicle.png","stimuli/Clothing.png",1,"Food",1,1,"stimuli/objects/chocolatecroissant.jpg",NA,NA,NA,NA
26,378308,2,0,1.1122,0,"stimuli/m_red.jpg","stimuli/Clothing.png","stimuli/Food.png","stimuli/Gamestoy & entertainment.png","stimuli/Vehicle.png",0,"Vehicle",4,0,"stimuli/objects/tricycle.jpg",NA,NA,NA,NA
26,378308,3,0,3.3463,0,"stimuli/m_blue.jpg","stimuli/Vehicle.png","stimuli/Clothing.png","stimuli/Gamestoy & entertainment.png","stimuli/Food.png",0,"Food",4,0,"stimuli/objects/cracker02.jpg",NA,NA,NA,NA
26,378308,4,1,3.4438,1,"stimuli/m_red.jpg","stimuli/Clothing.png","stimuli/Vehicle.png","stimuli/Gamestoy & entertainment.png","stimuli/Food.png",1,"Food",4,1,"stimuli/objects/hotdog.jpg",NA,NA,NA,NA
26,378308,4,0,3.0699,0,"stimuli/m_red.jpg","stimuli/Clothing.png","stimuli/Gamestoy & entertainment.png","stimuli/Food.png","stimuli/Vehicle.png",1,"Food",3,1,"stimuli/objects/kiwi03.jpg",NA,NA,NA,NA
26,378308,3,1,2.644,1,"stimuli/m_red.jpg","stimuli/Vehicle.png","stimuli/Gamestoy & entertainment.png","stimuli/Food.png","stimuli/Clothing.png",1,"Food",3,1,"stimuli/objects/greenolive.jpg",NA,NA,NA,NA
26,378308,3,0,2.2175,0,"stimuli/m_blue.jpg","stimuli/Food.png","stimuli/Clothing.png","stimuli/Vehicle.png","stimuli/Gamestoy & entertainment.png",1,"Gamestoy & entertainment",4,1,"stimuli/objects/paperairplane.jpg",NA,NA,NA,NA
26,378308,2,1,1.0601,1,"stimuli/m_blue.jpg","stimuli/Vehicle.png","stimuli/Gamestoy & entertainment.png","stimuli/Food.png","stimuli/Clothing.png",1,"Gamestoy & entertainment",2,1,"stimuli/objects/toyanimal02.jpg",NA,NA,NA,NA
26,378308,4,1,2.0166,1,"stimuli/m_red.jpg","stimuli/Vehicle.png","stimuli/Clothing.png","stimuli/Gamestoy & entertainment.png","stimuli/Food.png",1,"Food",4,1,"stimuli/objects/casabamelon.jpg",NA,NA,NA,NA
26,378308,1,1,2.6445,1,"stimuli/m_blue.jpg","stimuli/Gamestoy & entertainment.png","stimuli/Clothing.png","stimuli/Vehicle.png","stimuli/Food.png",1,"Gamestoy & entertainment",1,1,"stimuli/objects/paddleball.jpg",NA,NA,NA,NA
26,378308,1,1,1.0027,1,"stimuli/m_blue.jpg","stimuli/Gamestoy & entertainment.png","stimuli/Clothing.png","stimuli/Food.png","stimuli/Vehicle.png",1,"Gamestoy & entertainment",1,1,"stimuli/objects/rockinghorse.jpg",NA,NA,NA,NA
26,378308,2,1,1.9687,1,"stimuli/m_red.jpg","stimuli/Vehicle.png","stimuli/Food.png","stimuli/Clothing.png","stimuli/Gamestoy & entertainment.png",1,"Food",2,1,"stimuli/objects/arugula.jpg",NA,NA,NA,NA
26,378308,3,1,3.783,1,"stimuli/m_blue.jpg","stimuli/Food.png","stimuli/Clothing.png","stimuli/Gamestoy & entertainment.png","stimuli/Vehicle.png",1,"Gamestoy & entertainment",3,1,"stimuli/objects/dartboard.jpg",NA,NA,NA,NA
26,378308,NA,NA,NA,NA,"stimuli/m_black.jpg","stimuli/Electronic device & accessory.png","stimuli/Hand labour tool & accessory.png","stimuli/Kitchen & utensil.png","stimuli/Outdoor activity & sport item.png",NA,"Electronic device & accessory",1,0,"stimuli/objects/electricoutlet.jpg",3,0,1.7775,1
26,378308,NA,NA,NA,NA,"stimuli/m_black.jpg","stimuli/Kitchen & utensil.png","stimuli/Outdoor activity & sport item.png","stimuli/Electronic device & accessory.png","stimuli/Hand labour tool & accessory.png",NA,"Kitchen & utensil",1,1,"stimuli/objects/chocolatefonduedish.jpg",1,1,2.4616,1
26,378308,NA,NA,NA,NA,"stimuli/m_orange.jpg","stimuli/Outdoor activity & sport item.png","stimuli/Hand labour tool & accessory.png","stimuli/Electronic device & accessory.png","stimuli/Kitchen & utensil.png",NA,"Outdoor activity & sport item",1,0,"stimuli/objects/toyhockeystick01.jpg",2,0,3.4309,0
26,378308,NA,NA,NA,NA,"stimuli/m_orange.jpg","stimuli/Electronic device & accessory.png","stimuli/Kitchen & utensil.png","stimuli/Hand labour tool & accessory.png","stimuli/Outdoor activity & sport item.png",NA,"Electronic device & accessory",1,1,"stimuli/objects/alarmsystem.jpg",NA,0,NA,0
26,378308,NA,NA,NA,NA,"stimuli/m_black.jpg","stimuli/Electronic device & accessory.png","stimuli/Kitchen & utensil.png","stimuli/Hand labour tool & accessory.png","stimuli/Outdoor activity & sport item.png",NA,"Kitchen & utensil",2,1,"stimuli/objects/pastaspoon.jpg",2,1,1.7378,1
26,378308,NA,NA,NA,NA,"stimuli/m_black.jpg","stimuli/Hand labour tool & accessory.png","stimuli/Electronic device & accessory.png","stimuli/Outdoor activity & sport item.png","stimuli/Kitchen & utensil.png",NA,"Hand labour tool & accessory",1,0,"stimuli/objects/caulking.jpg",4,0,2.9769,1
26,378308,NA,NA,NA,NA,"stimuli/m_black.jpg","stimuli/Kitchen & utensil.png","stimuli/Hand labour tool & accessory.png","stimuli/Electronic device & accessory.png","stimuli/Outdoor activity & sport item.png",NA,"Electronic device & accessory",3,0,"stimuli/objects/lamp04a.jpg",1,0,1.2336,1
26,378308,NA,NA,NA,NA,"stimuli/m_orange.jpg","stimuli/Hand labour tool & accessory.png","stimuli/Outdoor activity & sport item.png","stimuli/Kitchen & utensil.png","stimuli/Electronic device & accessory.png",NA,"Electronic device & accessory",4,1,"stimuli/objects/desktopcomputer.jpg",NA,0,NA,0
26,378308,NA,NA,NA,NA,"stimuli/m_orange.jpg","stimuli/Hand labour tool & accessory.png","stimuli/Kitchen & utensil.png","stimuli/Outdoor activity & sport item.png","stimuli/Electronic device & accessory.png",NA,"Electronic device & accessory",4,1,"stimuli/objects/nintendods.jpg",4,1,2.6284,0
26,378308,NA,NA,NA,NA,"stimuli/m_black.jpg","stimuli/Outdoor activity & sport item.png","stimuli/Electronic device & accessory.png","stimuli/Hand labour tool & accessory.png","stimuli/Kitchen & utensil.png",NA,"Kitchen & utensil",4,1,"stimuli/objects/kitchenscale01a.jpg",4,1,3.3853,1
26,378308,NA,NA,NA,NA,"stimuli/m_black.jpg","stimuli/Electronic device & accessory.png","stimuli/Outdoor activity & sport item.png","stimuli/Hand labour tool & accessory.png","stimuli/Kitchen & utensil.png",NA,"Kitchen & utensil",4,1,"stimuli/objects/servingspoon01.jpg",4,1,2.9233,1
26,378308,NA,NA,NA,NA,"stimuli/m_orange.jpg","stimuli/Kitchen & utensil.png","stimuli/Outdoor activity & sport item.png","stimuli/Electronic device & accessory.png","stimuli/Hand labour tool & accessory.png",NA,"Electronic device & accessory",3,1,"stimuli/objects/videocamera01a.jpg",3,1,3.8851,0
26,378308,NA,NA,NA,NA,"stimuli/m_black.jpg","stimuli/Hand labour tool & accessory.png","stimuli/Kitchen & utensil.png","stimuli/Electronic device & accessory.png","stimuli/Outdoor activity & sport item.png",NA,"Kitchen & utensil",2,1,"stimuli/objects/coffeepot03a.jpg",2,1,2.6242,1
26,378308,NA,NA,NA,NA,"stimuli/m_orange.jpg","stimuli/Hand labour tool & accessory.png","stimuli/Electronic device & accessory.png","stimuli/Outdoor activity & sport item.png","stimuli/Kitchen & utensil.png",NA,"Hand labour tool & accessory",1,0,"stimuli/objects/lawnmower.jpg",2,0,2.3604,0
26,378308,NA,NA,NA,NA,"stimuli/m_orange.jpg","stimuli/Hand labour tool & accessory.png","stimuli/Electronic device & accessory.png","stimuli/Kitchen & utensil.png","stimuli/Outdoor activity & sport item.png",NA,"Hand labour tool & accessory",1,0,"stimuli/objects/boltcutter.jpg",2,0,0.999,0
26,378308,NA,NA,NA,NA,"stimuli/m_orange.jpg","stimuli/Outdoor activity & sport item.png","stimuli/Kitchen & utensil.png","stimuli/Hand labour tool & accessory.png","stimuli/Electronic device & accessory.png",NA,"Electronic device & accessory",4,1,"stimuli/objects/lectern01.jpg",4,1,3.2636,0
26,378308,NA,NA,NA,NA,"stimuli/m_orange.jpg","stimuli/Electronic device & accessory.png","stimuli/Kitchen & utensil.png","stimuli/Outdoor activity & sport item.png","stimuli/Hand labour tool & accessory.png",NA,"Electronic device & accessory",1,1,"stimuli/objects/coffeemachine.jpg",1,1,2.932,0
26,378308,NA,NA,NA,NA,"stimuli/m_black.jpg","stimuli/Kitchen & utensil.png","stimuli/Electronic device & accessory.png","stimuli/Outdoor activity & sport item.png","stimuli/Hand labour tool & accessory.png",NA,"Kitchen & utensil",1,1,"stimuli/objects/cowbell.jpg",1,1,2.1997,1
26,378308,NA,NA,NA,NA,"stimuli/m_black.jpg","stimuli/Electronic device & accessory.png","stimuli/Outdoor activity & sport item.png","stimuli/Kitchen & utensil.png","stimuli/Hand labour tool & accessory.png",NA,"Kitchen & utensil",3,1,"stimuli/objects/bottlecap.jpg",3,1,1.8952,1
26,378308,NA,NA,NA,NA,"stimuli/m_black.jpg","stimuli/Outdoor activity & sport item.png","stimuli/Kitchen & utensil.png","stimuli/Hand labour tool & accessory.png","stimuli/Electronic device & accessory.png",NA,"Kitchen & utensil",2,1,"stimuli/objects/oven.jpg",2,1,1.0687,1
26,378308,NA,NA,NA,NA,"stimuli/m_black.jpg","stimuli/Kitchen & utensil.png","stimuli/Electronic device & accessory.png","stimuli/Outdoor activity & sport item.png","stimuli/Hand labour tool & accessory.png",NA,"Kitchen & utensil",1,1,"stimuli/objects/tupperware03a.jpg",1,1,2.8344,1
26,378308,NA,NA,NA,NA,"stimuli/m_black.jpg","stimuli/Electronic device & accessory.png","stimuli/Hand labour tool & accessory.png","stimuli/Kitchen & utensil.png","stimuli/Outdoor activity & sport item.png",NA,"Kitchen & utensil",3,1,"stimuli/objects/bowl02a.jpg",3,1,2.5785,1
26,378308,NA,NA,NA,NA,"stimuli/m_orange.jpg","stimuli/Electronic device & accessory.png","stimuli/Hand labour tool & accessory.png","stimuli/Outdoor activity & sport item.png","stimuli/Kitchen & utensil.png",NA,"Electronic device & accessory",1,1,"stimuli/objects/scanner.jpg",1,1,1.5313,0
26,378308,NA,NA,NA,NA,"stimuli/m_orange.jpg","stimuli/Kitchen & utensil.png","stimuli/Outdoor activity & sport item.png","stimuli/Electronic device & accessory.png","stimuli/Hand labour tool & accessory.png",NA,"Electronic device & accessory",3,1,"stimuli/objects/extensioncord.jpg",1,0,1.4053,0
26,378308,NA,NA,NA,NA,"stimuli/m_orange.jpg","stimuli/Outdoor activity & sport item.png","stimuli/Hand labour tool & accessory.png","stimuli/Kitchen & utensil.png","stimuli/Electronic device & accessory.png",NA,"Electronic device & accessory",4,1,"stimuli/objects/expansioncard.jpg",3,0,1.7438,0
26,378308,NA,NA,NA,NA,"stimuli/m_orange.jpg","stimuli/Hand labour tool & accessory.png","stimuli/Outdoor activity & sport item.png","stimuli/Electronic device & accessory.png","stimuli/Kitchen & utensil.png",NA,"Electronic device & accessory",3,1,"stimuli/objects/gps.jpg",2,0,2.9692,0
26,378308,NA,NA,NA,NA,"stimuli/m_black.jpg","stimuli/Hand labour tool & accessory.png","stimuli/Outdoor activity & sport item.png","stimuli/Electronic device & accessory.png","stimuli/Kitchen & utensil.png",NA,"Kitchen & utensil",4,1,"stimuli/objects/potatomasher03b.jpg",4,1,2.7685,1
26,378308,NA,NA,NA,NA,"stimuli/m_black.jpg","stimuli/Electronic device & accessory.png","stimuli/Hand labour tool & accessory.png","stimuli/Kitchen & utensil.png","stimuli/Outdoor activity & sport item.png",NA,"Electronic device & accessory",1,0,"stimuli/objects/heatpump.jpg",3,0,2.4148,1
26,378308,NA,NA,NA,NA,"stimuli/m_orange.jpg","stimuli/Outdoor activity & sport item.png","stimuli/Kitchen & utensil.png","stimuli/Electronic device & accessory.png","stimuli/Hand labour tool & accessory.png",NA,"Outdoor activity & sport item",1,0,"stimuli/objects/charcoalbarbecue.jpg",3,0,2.125,0
26,378308,NA,NA,NA,NA,"stimuli/m_orange.jpg","stimuli/Kitchen & utensil.png","stimuli/Electronic device & accessory.png","stimuli/Hand labour tool & accessory.png","stimuli/Outdoor activity & sport item.png",NA,"Electronic device & accessory",2,1,"stimuli/objects/powercable.jpg",2,1,1.9143,0
26,378308,NA,NA,NA,NA,"stimuli/m_orange.jpg","stimuli/Kitchen & utensil.png","stimuli/Hand labour tool & accessory.png","stimuli/Outdoor activity & sport item.png","stimuli/Electronic device & accessory.png",NA,"Electronic device & accessory",4,1,"stimuli/objects/taperecorder.jpg",4,1,1.6372,0
26,378308,NA,NA,NA,NA,"stimuli/m_orange.jpg","stimuli/Outdoor activity & sport item.png","stimuli/Electronic device & accessory.png","stimuli/Hand labour tool & accessory.png","stimuli/Kitchen & utensil.png",NA,"Electronic device & accessory",2,1,"stimuli/objects/usbkey.jpg",2,1,2.4013,0
26,378308,NA,NA,NA,NA,"stimuli/m_orange.jpg","stimuli/Electronic device & accessory.png","stimuli/Outdoor activity & sport item.png","stimuli/Hand labour tool & accessory.png","stimuli/Kitchen & utensil.png",NA,"Electronic device & accessory",1,1,"stimuli/objects/crocodileclips.jpg",1,1,1.2423,0
26,378308,NA,NA,NA,NA,"stimuli/m_orange.jpg","stimuli/Outdoor activity & sport item.png","stimuli/Electronic device & accessory.png","stimuli/Kitchen & utensil.png","stimuli/Hand labour tool & accessory.png",NA,"Electronic device & accessory",2,1,"stimuli/objects/walkman.jpg",2,1,1.6169,0
26,378308,NA,NA,NA,NA,"stimuli/m_black.jpg","stimuli/Electronic device & accessory.png","stimuli/Outdoor activity & sport item.png","stimuli/Kitchen & utensil.png","stimuli/Hand labour tool & accessory.png",NA,"Electronic device & accessory",1,0,"stimuli/objects/carlighter02.jpg",3,0,1.2178,1
26,378308,NA,NA,NA,NA,"stimuli/m_black.jpg","stimuli/Outdoor activity & sport item.png","stimuli/Kitchen & utensil.png","stimuli/Electronic device & accessory.png","stimuli/Hand labour tool & accessory.png",NA,"Kitchen & utensil",2,1,"stimuli/objects/martiniglass01b.jpg",2,1,2.6505,1
26,378308,NA,NA,NA,NA,"stimuli/m_orange.jpg","stimuli/Outdoor activity & sport item.png","stimuli/Electronic device & accessory.png","stimuli/Hand labour tool & accessory.png","stimuli/Kitchen & utensil.png",NA,"Hand labour tool & accessory",3,0,"stimuli/objects/tablesaw.jpg",2,0,2.1509,0
26,378308,NA,NA,NA,NA,"stimuli/m_black.jpg","stimuli/Electronic device & accessory.png","stimuli/Hand labour tool & accessory.png","stimuli/Outdoor activity & sport item.png","stimuli/Kitchen & utensil.png",NA,"Outdoor activity & sport item",3,0,"stimuli/objects/umbrella04.jpg",NA,0,NA,1
26,378308,NA,NA,NA,NA,"stimuli/m_orange.jpg","stimuli/Kitchen & utensil.png","stimuli/Outdoor activity & sport item.png","stimuli/Hand labour tool & accessory.png","stimuli/Electronic device & accessory.png",NA,"Electronic device & accessory",4,1,"stimuli/objects/djmixer02.jpg",4,1,1.8119,0
26,378308,NA,NA,NA,NA,"stimuli/m_orange.jpg","stimuli/Hand labour tool & accessory.png","stimuli/Kitchen & utensil.png","stimuli/Electronic device & accessory.png","stimuli/Outdoor activity & sport item.png",NA,"Kitchen & utensil",2,0,"stimuli/objects/cakeplatter.jpg",2,1,3.8136,0
26,378308,NA,NA,NA,NA,"stimuli/m_orange.jpg","stimuli/Electronic device & accessory.png","stimuli/Hand labour tool & accessory.png","stimuli/Kitchen & utensil.png","stimuli/Outdoor activity & sport item.png",NA,"Electronic device & accessory",1,1,"stimuli/objects/computerkeyboard02.jpg",1,1,2.4942,0
26,378308,NA,NA,NA,NA,"stimuli/m_black.jpg","stimuli/Hand labour tool & accessory.png","stimuli/Electronic device & accessory.png","stimuli/Kitchen & utensil.png","stimuli/Outdoor activity & sport item.png",NA,"Kitchen & utensil",3,1,"stimuli/objects/spatula04.jpg",3,1,2.8178,1
26,378308,NA,NA,NA,NA,"stimuli/m_orange.jpg","stimuli/Outdoor activity & sport item.png","stimuli/Kitchen & utensil.png","stimuli/Electronic device & accessory.png","stimuli/Hand labour tool & accessory.png",NA,"Electronic device & accessory",3,1,"stimuli/objects/faxmachine.jpg",4,0,3.3205,0
26,378308,NA,NA,NA,NA,"stimuli/m_black.jpg","stimuli/Hand labour tool & accessory.png","stimuli/Kitchen & utensil.png","stimuli/Outdoor activity & sport item.png","stimuli/Electronic device & accessory.png",NA,"Kitchen & utensil",2,1,"stimuli/objects/measuringspoon.jpg",2,1,2.0171,1
26,378308,NA,NA,NA,NA,"stimuli/m_orange.jpg","stimuli/Kitchen & utensil.png","stimuli/Hand labour tool & accessory.png","stimuli/Electronic device & accessory.png","stimuli/Outdoor activity & sport item.png",NA,"Kitchen & utensil",1,0,"stimuli/objects/freezer02.jpg",3,0,3.0387,0
26,378308,NA,NA,NA,NA,"stimuli/m_orange.jpg","stimuli/Kitchen & utensil.png","stimuli/Electronic device & accessory.png","stimuli/Hand labour tool & accessory.png","stimuli/Outdoor activity & sport item.png",NA,"Electronic device & accessory",2,1,"stimuli/objects/lightswitch01.jpg",2,1,2.2836,0
26,378308,NA,NA,NA,NA,"stimuli/m_black.jpg","stimuli/Kitchen & utensil.png","stimuli/Hand labour tool & accessory.png","stimuli/Outdoor activity & sport item.png","stimuli/Electronic device & accessory.png",NA,"Kitchen & utensil",1,1,"stimuli/objects/cleaver01.jpg",1,1,0.9166,1
26,378308,NA,NA,NA,NA,"stimuli/m_orange.jpg","stimuli/Hand labour tool & accessory.png","stimuli/Electronic device & accessory.png","stimuli/Kitchen & utensil.png","stimuli/Outdoor activity & sport item.png",NA,"Outdoor activity & sport item",4,0,"stimuli/objects/kneepad01c.jpg",2,0,1.434,0
26,378308,NA,NA,NA,NA,"stimuli/m_orange.jpg","stimuli/Hand labour tool & accessory.png","stimuli/Kitchen & utensil.png","stimuli/Outdoor activity & sport item.png","stimuli/Electronic device & accessory.png",NA,"Electronic device & accessory",4,1,"stimuli/objects/photocopier.jpg",4,1,2.6785,0
26,378308,NA,NA,NA,NA,"stimuli/m_orange.jpg","stimuli/Electronic device & accessory.png","stimuli/Outdoor activity & sport item.png","stimuli/Kitchen & utensil.png","stimuli/Hand labour tool & accessory.png",NA,"Kitchen & utensil",3,0,"stimuli/objects/fryingpan02a.jpg",1,0,1.501,0
26,378308,NA,NA,NA,NA,"stimuli/m_black.jpg","stimuli/Outdoor activity & sport item.png","stimuli/Hand labour tool & accessory.png","stimuli/Kitchen & utensil.png","stimuli/Electronic device & accessory.png",NA,"Outdoor activity & sport item",1,0,"stimuli/objects/backpack01a.jpg",3,0,1.6834,1
26,378308,NA,NA,NA,NA,"stimuli/m_orange.jpg","stimuli/Kitchen & utensil.png","stimuli/Hand labour tool & accessory.png","stimuli/Outdoor activity & sport item.png","stimuli/Electronic device & accessory.png",NA,"Electronic device & accessory",4,1,"stimuli/objects/phonejack.jpg",NA,0,NA,0
26,378308,NA,NA,NA,NA,"stimuli/m_orange.jpg","stimuli/Electronic device & accessory.png","stimuli/Outdoor activity & sport item.png","stimuli/Hand labour tool & accessory.png","stimuli/Kitchen & utensil.png",NA,"Electronic device & accessory",1,1,"stimuli/objects/chandelier.jpg",1,1,2.202,0
26,378308,NA,NA,NA,NA,"stimuli/m_orange.jpg","stimuli/Hand labour tool & accessory.png","stimuli/Outdoor activity & sport item.png","stimuli/Kitchen & utensil.png","stimuli/Electronic device & accessory.png",NA,"Kitchen & utensil",3,0,"stimuli/objects/spatula03.jpg",1,0,2.7283,0
26,378308,NA,NA,NA,NA,"stimuli/m_black.jpg","stimuli/Electronic device & accessory.png","stimuli/Outdoor activity & sport item.png","stimuli/Hand labour tool & accessory.png","stimuli/Kitchen & utensil.png",NA,"Kitchen & utensil",4,1,"stimuli/objects/canister.jpg",4,1,3.872,1
26,378308,NA,NA,NA,NA,"stimuli/m_orange.jpg","stimuli/Electronic device & accessory.png","stimuli/Kitchen & utensil.png","stimuli/Hand labour tool & accessory.png","stimuli/Outdoor activity & sport item.png",NA,"Electronic device & accessory",1,1,"stimuli/objects/cashregister01.jpg",1,1,3.1783,0
26,378308,NA,NA,NA,NA,"stimuli/m_orange.jpg","stimuli/Kitchen & utensil.png","stimuli/Hand labour tool & accessory.png","stimuli/Electronic device & accessory.png","stimuli/Outdoor activity & sport item.png",NA,"Hand labour tool & accessory",2,0,"stimuli/objects/swissarmyknife01a.jpg",3,0,2.2167,0
26,378308,NA,NA,NA,NA,"stimuli/m_orange.jpg","stimuli/Kitchen & utensil.png","stimuli/Hand labour tool & accessory.png","stimuli/Outdoor activity & sport item.png","stimuli/Electronic device & accessory.png",NA,"Electronic device & accessory",4,1,"stimuli/objects/carantenna.jpg",4,1,2.367,0
26,378308,NA,NA,NA,NA,"stimuli/m_black.jpg","stimuli/Outdoor activity & sport item.png","stimuli/Kitchen & utensil.png","stimuli/Electronic device & accessory.png","stimuli/Hand labour tool & accessory.png",NA,"Outdoor activity & sport item",1,0,"stimuli/objects/bikepump01.jpg",2,0,2.1274,1
26,378308,NA,NA,NA,NA,"stimuli/m_orange.jpg","stimuli/Outdoor activity & sport item.png","stimuli/Electronic device & accessory.png","stimuli/Kitchen & utensil.png","stimuli/Hand labour tool & accessory.png",NA,"Electronic device & accessory",2,1,"stimuli/objects/telephone01b.jpg",2,1,3.4066,0
26,378308,NA,NA,NA,NA,"stimuli/m_black.jpg","stimuli/Hand labour tool & accessory.png","stimuli/Outdoor activity & sport item.png","stimuli/Electronic device & accessory.png","stimuli/Kitchen & utensil.png",NA,"Kitchen & utensil",4,1,"stimuli/objects/peeler01.jpg",4,1,3.2922,1
26,378308,NA,NA,NA,NA,"stimuli/m_black.jpg","stimuli/Outdoor activity & sport item.png","stimuli/Electronic device & accessory.png","stimuli/Kitchen & utensil.png","stimuli/Hand labour tool & accessory.png",NA,"Kitchen & utensil",3,1,"stimuli/objects/fonduefork01.jpg",3,1,2.6007,1
26,378308,NA,NA,NA,NA,"stimuli/m_orange.jpg","stimuli/Electronic device & accessory.png","stimuli/Outdoor activity & sport item.png","stimuli/Kitchen & utensil.png","stimuli/Hand labour tool & accessory.png",NA,"Electronic device & accessory",1,1,"stimuli/objects/battery02b.jpg",1,1,3.8508,0
26,378308,NA,NA,NA,NA,"stimuli/m_orange.jpg","stimuli/Kitchen & utensil.png","stimuli/Outdoor activity & sport item.png","stimuli/Electronic device & accessory.png","stimuli/Hand labour tool & accessory.png",NA,"Hand labour tool & accessory",4,0,"stimuli/objects/squeegee01b.jpg",3,0,3.2755,0
26,378308,NA,NA,NA,NA,"stimuli/m_black.jpg","stimuli/Electronic device & accessory.png","stimuli/Hand labour tool & accessory.png","stimuli/Outdoor activity & sport item.png","stimuli/Kitchen & utensil.png",NA,"Kitchen & utensil",4,1,"stimuli/objects/waterbottle03.jpg",4,1,3.1622,1
26,378308,NA,NA,NA,NA,"stimuli/m_black.jpg","stimuli/Outdoor activity & sport item.png","stimuli/Hand labour tool & accessory.png","stimuli/Electronic device & accessory.png","stimuli/Kitchen & utensil.png",NA,"Kitchen & utensil",4,1,"stimuli/objects/beermug01a.jpg",4,1,1.2482,1
26,378308,NA,NA,NA,NA,"stimuli/m_black.jpg","stimuli/Outdoor activity & sport item.png","stimuli/Kitchen & utensil.png","stimuli/Hand labour tool & accessory.png","stimuli/Electronic device & accessory.png",NA,"Kitchen & utensil",2,1,"stimuli/objects/icepack.jpg",2,1,3.1036,1
26,378308,NA,NA,NA,NA,"stimuli/m_orange.jpg","stimuli/Outdoor activity & sport item.png","stimuli/Electronic device & accessory.png","stimuli/Hand labour tool & accessory.png","stimuli/Kitchen & utensil.png",NA,"Electronic device & accessory",2,1,"stimuli/objects/lightbulb01.jpg",NA,0,NA,0
26,378308,NA,NA,NA,NA,"stimuli/m_orange.jpg","stimuli/Hand labour tool & accessory.png","stimuli/Outdoor activity & sport item.png","stimuli/Electronic device & accessory.png","stimuli/Kitchen & utensil.png",NA,"Electronic device & accessory",3,1,"stimuli/objects/ipod.jpg",3,1,1.8717,0
26,378308,NA,NA,NA,NA,"stimuli/m_orange.jpg","stimuli/Kitchen & utensil.png","stimuli/Outdoor activity & sport item.png","stimuli/Hand labour tool & accessory.png","stimuli/Electronic device & accessory.png",NA,"Electronic device & accessory",4,1,"stimuli/objects/remotecontrol04.jpg",4,1,2.1439,0
26,378308,NA,NA,NA,NA,"stimuli/m_orange.jpg","stimuli/Kitchen & utensil.png","stimuli/Electronic device & accessory.png","stimuli/Outdoor activity & sport item.png","stimuli/Hand labour tool & accessory.png",NA,"Electronic device & accessory",2,1,"stimuli/objects/walkietalkie.jpg",2,1,1.4245,0
26,378308,NA,NA,NA,NA,"stimuli/m_black.jpg","stimuli/Hand labour tool & accessory.png","stimuli/Electronic device & accessory.png","stimuli/Outdoor activity & sport item.png","stimuli/Kitchen & utensil.png",NA,"Kitchen & utensil",4,1,"stimuli/objects/handmixer01d.jpg",4,1,2.3946,1
26,378308,NA,NA,NA,NA,"stimuli/m_orange.jpg","stimuli/Kitchen & utensil.png","stimuli/Electronic device & accessory.png","stimuli/Outdoor activity & sport item.png","stimuli/Hand labour tool & accessory.png",NA,"Electronic device & accessory",2,1,"stimuli/objects/filmroll.jpg",1,0,3.1839,0
26,378308,NA,NA,NA,NA,"stimuli/m_orange.jpg","stimuli/Electronic device & accessory.png","stimuli/Hand labour tool & accessory.png","stimuli/Outdoor activity & sport item.png","stimuli/Kitchen & utensil.png",NA,"Electronic device & accessory",1,1,"stimuli/objects/wiicontroller.jpg",1,1,3.3436,0
26,378308,NA,NA,NA,NA,"stimuli/m_black.jpg","stimuli/Outdoor activity & sport item.png","stimuli/Kitchen & utensil.png","stimuli/Hand labour tool & accessory.png","stimuli/Electronic device & accessory.png",NA,"Outdoor activity & sport item",1,0,"stimuli/objects/golfbag.jpg",NA,0,NA,1
26,378308,NA,NA,NA,NA,"stimuli/m_orange.jpg","stimuli/Hand labour tool & accessory.png","stimuli/Outdoor activity & sport item.png","stimuli/Electronic device & accessory.png","stimuli/Kitchen & utensil.png",NA,"Electronic device & accessory",3,1,"stimuli/objects/avcable.jpg",3,1,2.7921,0
26,378308,NA,NA,NA,NA,"stimuli/m_black.jpg","stimuli/Hand labour tool & accessory.png","stimuli/Electronic device & accessory.png","stimuli/Kitchen & utensil.png","stimuli/Outdoor activity & sport item.png",NA,"Hand labour tool & accessory",1,0,"stimuli/objects/snowshovel.jpg",3,0,1.0059,1
26,378308,NA,NA,NA,NA,"stimuli/m_black.jpg","stimuli/Electronic device & accessory.png","stimuli/Kitchen & utensil.png","stimuli/Hand labour tool & accessory.png","stimuli/Outdoor activity & sport item.png",NA,"Kitchen & utensil",2,1,"stimuli/objects/dishrack.jpg",2,1,0.8764,1
26,378308,NA,NA,NA,NA,"stimuli/m_orange.jpg","stimuli/Outdoor activity & sport item.png","stimuli/Kitchen & utensil.png","stimuli/Hand labour tool & accessory.png","stimuli/Electronic device & accessory.png",NA,"Outdoor activity & sport item",1,0,"stimuli/objects/surfboard.jpg",4,0,3.1526,0
26,378308,NA,NA,NA,NA,"stimuli/m_black.jpg","stimuli/Electronic device & accessory.png","stimuli/Kitchen & utensil.png","stimuli/Hand labour tool & accessory.png","stimuli/Outdoor activity & sport item.png",NA,"Kitchen & utensil",2,1,"stimuli/objects/funnel.jpg",2,1,0.7671,1
26,378308,NA,NA,NA,NA,"stimuli/m_black.jpg","stimuli/Hand labour tool & accessory.png","stimuli/Kitchen & utensil.png","stimuli/Electronic device & accessory.png","stimuli/Outdoor activity & sport item.png",NA,"Electronic device & accessory",3,0,"stimuli/objects/jack.jpg",2,0,1.5084,1
26,378308,NA,NA,NA,NA,"stimuli/m_black.jpg","stimuli/Outdoor activity & sport item.png","stimuli/Hand labour tool & accessory.png","stimuli/Electronic device & accessory.png","stimuli/Kitchen & utensil.png",NA,"Outdoor activity & sport item",1,0,"stimuli/objects/podium.jpg",4,0,3.3032,1
26,378308,NA,NA,NA,NA,"stimuli/m_black.jpg","stimuli/Kitchen & utensil.png","stimuli/Electronic device & accessory.png","stimuli/Hand labour tool & accessory.png","stimuli/Outdoor activity & sport item.png",NA,"Kitchen & utensil",1,1,"stimuli/objects/peppermill02b.jpg",1,1,2.7841,1
26,378308,NA,NA,NA,NA,"stimuli/m_black.jpg","stimuli/Kitchen & utensil.png","stimuli/Outdoor activity & sport item.png","stimuli/Electronic device & accessory.png","stimuli/Hand labour tool & accessory.png",NA,"Kitchen & utensil",1,1,"stimuli/objects/grill.jpg",1,1,1.4236,1
26,378308,NA,NA,NA,NA,"stimuli/m_black.jpg","stimuli/Electronic device & accessory.png","stimuli/Kitchen & utensil.png","stimuli/Outdoor activity & sport item.png","stimuli/Hand labour tool & accessory.png",NA,"Kitchen & utensil",2,1,"stimuli/objects/ramekin01.jpg",2,1,2.9953,1
26,378308,NA,NA,NA,NA,"stimuli/m_black.jpg","stimuli/Kitchen & utensil.png","stimuli/Outdoor activity & sport item.png","stimuli/Hand labour tool & accessory.png","stimuli/Electronic device & accessory.png",NA,"Kitchen & utensil",1,1,"stimuli/objects/pitcher02b.jpg",1,1,1.0382,1
26,378308,NA,NA,NA,NA,"stimuli/m_black.jpg","stimuli/Outdoor activity & sport item.png","stimuli/Electronic device & accessory.png","stimuli/Kitchen & utensil.png","stimuli/Hand labour tool & accessory.png",NA,"Kitchen & utensil",3,1,"stimuli/objects/shotglass.jpg",3,1,1.1003,1
26,378308,NA,NA,NA,NA,"stimuli/m_orange.jpg","stimuli/Hand labour tool & accessory.png","stimuli/Electronic device & accessory.png","stimuli/Outdoor activity & sport item.png","stimuli/Kitchen & utensil.png",NA,"Electronic device & accessory",2,1,"stimuli/objects/spotlight.jpg",2,1,1.0154,0
26,378308,NA,NA,NA,NA,"stimuli/m_black.jpg","stimuli/Hand labour tool & accessory.png","stimuli/Electronic device & accessory.png","stimuli/Kitchen & utensil.png","stimuli/Outdoor activity & sport item.png",NA,"Outdoor activity & sport item",4,0,"stimuli/objects/beachumbrella01.jpg",3,0,1.6942,1
26,378308,NA,NA,NA,NA,"stimuli/m_orange.jpg","stimuli/Electronic device & accessory.png","stimuli/Kitchen & utensil.png","stimuli/Hand labour tool & accessory.png","stimuli/Outdoor activity & sport item.png",NA,"Electronic device & accessory",1,1,"stimuli/objects/cameracase01a.jpg",1,1,2.0108,0
26,378308,NA,NA,NA,NA,"stimuli/m_orange.jpg","stimuli/Outdoor activity & sport item.png","stimuli/Hand labour tool & accessory.png","stimuli/Kitchen & utensil.png","stimuli/Electronic device & accessory.png",NA,"Outdoor activity & sport item",1,0,"stimuli/objects/snowshoe.jpg",4,0,2.4945,0
26,378308,NA,NA,NA,NA,"stimuli/m_black.jpg","stimuli/Kitchen & utensil.png","stimuli/Hand labour tool & accessory.png","stimuli/Electronic device & accessory.png","stimuli/Outdoor activity & sport item.png",NA,"Hand labour tool & accessory",2,0,"stimuli/objects/knifesharpener.jpg",1,0,1.9494,1
26,378308,NA,NA,NA,NA,"stimuli/m_orange.jpg","stimuli/Kitchen & utensil.png","stimuli/Electronic device & accessory.png","stimuli/Hand labour tool & accessory.png","stimuli/Outdoor activity & sport item.png",NA,"Electronic device & accessory",2,1,"stimuli/objects/filmnegative.jpg",2,1,1.5939,0
26,378308,NA,NA,NA,NA,"stimuli/m_black.jpg","stimuli/Kitchen & utensil.png","stimuli/Hand labour tool & accessory.png","stimuli/Outdoor activity & sport item.png","stimuli/Electronic device & accessory.png",NA,"Kitchen & utensil",1,1,"stimuli/objects/breadknife.jpg",1,1,3.3014,1
26,378308,NA,NA,NA,NA,"stimuli/m_orange.jpg","stimuli/Hand labour tool & accessory.png","stimuli/Kitchen & utensil.png","stimuli/Outdoor activity & sport item.png","stimuli/Electronic device & accessory.png",NA,"Electronic device & accessory",4,1,"stimuli/objects/fanheater.jpg",4,1,3.1276,0
26,378308,NA,NA,NA,NA,"stimuli/m_black.jpg","stimuli/Hand labour tool & accessory.png","stimuli/Outdoor activity & sport item.png","stimuli/Kitchen & utensil.png","stimuli/Electronic device & accessory.png",NA,"Kitchen & utensil",3,1,"stimuli/objects/pot01.jpg",3,1,3.6958,1
26,378308,NA,NA,NA,NA,"stimuli/m_orange.jpg","stimuli/Kitchen & utensil.png","stimuli/Electronic device & accessory.png","stimuli/Outdoor activity & sport item.png","stimuli/Hand labour tool & accessory.png",NA,"Electronic device & accessory",2,1,"stimuli/objects/securitycamera.jpg",2,1,3.4363,0
26,378308,NA,NA,NA,NA,"stimuli/m_orange.jpg","stimuli/Electronic device & accessory.png","stimuli/Hand labour tool & accessory.png","stimuli/Outdoor activity & sport item.png","stimuli/Kitchen & utensil.png",NA,"Outdoor activity & sport item",3,0,"stimuli/objects/swimgoggles.jpg",1,0,3.9171,0
26,378308,NA,NA,NA,NA,"stimuli/m_black.jpg","stimuli/Hand labour tool & accessory.png","stimuli/Kitchen & utensil.png","stimuli/Outdoor activity & sport item.png","stimuli/Electronic device & accessory.png",NA,"Kitchen & utensil",2,1,"stimuli/objects/cookingpot.jpg",2,1,2.9492,1
26,378308,NA,NA,NA,NA,"stimuli/m_orange.jpg","stimuli/Electronic device & accessory.png","stimuli/Hand labour tool & accessory.png","stimuli/Kitchen & utensil.png","stimuli/Outdoor activity & sport item.png",NA,"Kitchen & utensil",3,0,"stimuli/objects/knife03.jpg",1,0,1.2998,0
26,378308,NA,NA,NA,NA,"stimuli/m_black.jpg","stimuli/Kitchen & utensil.png","stimuli/Electronic device & accessory.png","stimuli/Hand labour tool & accessory.png","stimuli/Outdoor activity & sport item.png",NA,"Kitchen & utensil",1,1,"stimuli/objects/whisk.jpg",NA,0,NA,1
26,378308,NA,NA,NA,NA,"stimuli/m_black.jpg","stimuli/Hand labour tool & accessory.png","stimuli/Outdoor activity & sport item.png","stimuli/Electronic device & accessory.png","stimuli/Kitchen & utensil.png",NA,"Kitchen & utensil",4,1,"stimuli/objects/muffintray01.jpg",4,1,2.5957,1
26,378308,NA,NA,NA,NA,"stimuli/m_orange.jpg","stimuli/Hand labour tool & accessory.png","stimuli/Electronic device & accessory.png","stimuli/Kitchen & utensil.png","stimuli/Outdoor activity & sport item.png",NA,"Electronic device & accessory",2,1,"stimuli/objects/radio01.jpg",2,1,3.1676,0
26,378308,NA,NA,NA,NA,"stimuli/m_black.jpg","stimuli/Kitchen & utensil.png","stimuli/Electronic device & accessory.png","stimuli/Outdoor activity & sport item.png","stimuli/Hand labour tool & accessory.png",NA,"Kitchen & utensil",1,1,"stimuli/objects/fork03c.jpg",1,1,1.7844,1
26,378308,NA,NA,NA,NA,"stimuli/m_orange.jpg","stimuli/Outdoor activity & sport item.png","stimuli/Kitchen & utensil.png","stimuli/Hand labour tool & accessory.png","stimuli/Electronic device & accessory.png",NA,"Electronic device & accessory",4,1,"stimuli/objects/audiocablesplitter.jpg",4,1,2.3513,0
26,378308,NA,NA,NA,NA,"stimuli/m_black.jpg","stimuli/Hand labour tool & accessory.png","stimuli/Electronic device & accessory.png","stimuli/Outdoor activity & sport item.png","stimuli/Kitchen & utensil.png",NA,"Hand labour tool & accessory",1,0,"stimuli/objects/adjustablewrench01b.jpg",NA,0,NA,1
26,378308,NA,NA,NA,NA,"stimuli/m_black.jpg","stimuli/Kitchen & utensil.png","stimuli/Hand labour tool & accessory.png","stimuli/Outdoor activity & sport item.png","stimuli/Electronic device & accessory.png",NA,"Kitchen & utensil",1,1,"stimuli/objects/coffeemaker.jpg",1,1,2.1357,1
26,378308,NA,NA,NA,NA,"stimuli/m_black.jpg","stimuli/Kitchen & utensil.png","stimuli/Outdoor activity & sport item.png","stimuli/Electronic device & accessory.png","stimuli/Hand labour tool & accessory.png",NA,"Hand labour tool & accessory",4,0,"stimuli/objects/painttray.jpg",1,0,1.6052,1
26,378308,NA,NA,NA,NA,"stimuli/m_black.jpg","stimuli/Outdoor activity & sport item.png","stimuli/Hand labour tool & accessory.png","stimuli/Kitchen & utensil.png","stimuli/Electronic device & accessory.png",NA,"Kitchen & utensil",3,1,"stimuli/objects/saltshaker03a.jpg",3,1,1.7877,1
26,378308,NA,NA,NA,NA,"stimuli/m_black.jpg","stimuli/Electronic device & accessory.png","stimuli/Hand labour tool & accessory.png","stimuli/Outdoor activity & sport item.png","stimuli/Kitchen & utensil.png",NA,"Kitchen & utensil",4,1,"stimuli/objects/cuttingboard.jpg",4,1,1.5773,1
26,378308,NA,NA,NA,NA,"stimuli/m_orange.jpg","stimuli/Outdoor activity & sport item.png","stimuli/Hand labour tool & accessory.png","stimuli/Electronic device & accessory.png","stimuli/Kitchen & utensil.png",NA,"Electronic device & accessory",3,1,"stimuli/objects/soundmixer.jpg",3,1,2.6775,0
26,378308,NA,NA,NA,NA,"stimuli/m_orange.jpg","stimuli/Hand labour tool & accessory.png","stimuli/Kitchen & utensil.png","stimuli/Electronic device & accessory.png","stimuli/Outdoor activity & sport item.png",NA,"Electronic device & accessory",3,1,"stimuli/objects/payphone.jpg",3,1,1.916,0
26,378308,NA,NA,NA,NA,"stimuli/m_black.jpg","stimuli/Outdoor activity & sport item.png","stimuli/Electronic device & accessory.png","stimuli/Hand labour tool & accessory.png","stimuli/Kitchen & utensil.png",NA,"Hand labour tool & accessory",3,0,"stimuli/objects/cuttingpliers02.jpg",4,0,3.6279,1
26,378308,NA,NA,NA,NA,"stimuli/m_orange.jpg","stimuli/Hand labour tool & accessory.png","stimuli/Electronic device & accessory.png","stimuli/Outdoor activity & sport item.png","stimuli/Kitchen & utensil.png",NA,"Hand labour tool & accessory",1,0,"stimuli/objects/wateringcan.jpg",2,0,3.0966,0
26,378308,NA,NA,NA,NA,"stimuli/m_black.jpg","stimuli/Kitchen & utensil.png","stimuli/Electronic device & accessory.png","stimuli/Hand labour tool & accessory.png","stimuli/Outdoor activity & sport item.png",NA,"Kitchen & utensil",1,1,"stimuli/objects/toasteroven.jpg",1,1,2.1922,1
26,378308,NA,NA,NA,NA,"stimuli/m_black.jpg","stimuli/Hand labour tool & accessory.png","stimuli/Kitchen & utensil.png","stimuli/Outdoor activity & sport item.png","stimuli/Electronic device & accessory.png",NA,"Kitchen & utensil",2,1,"stimuli/objects/minifridge.jpg",2,1,1.8772,1
26,378308,NA,NA,NA,NA,"stimuli/m_orange.jpg","stimuli/Electronic device & accessory.png","stimuli/Hand labour tool & accessory.png","stimuli/Kitchen & utensil.png","stimuli/Outdoor activity & sport item.png",NA,"Kitchen & utensil",3,0,"stimuli/objects/fridge.jpg",1,0,2.7512,0
26,378308,NA,NA,NA,NA,"stimuli/m_black.jpg","stimuli/Hand labour tool & accessory.png","stimuli/Outdoor activity & sport item.png","stimuli/Kitchen & utensil.png","stimuli/Electronic device & accessory.png",NA,"Electronic device & accessory",4,0,"stimuli/objects/camera01a.jpg",3,0,2.4617,1
26,378308,NA,NA,NA,NA,"stimuli/m_black.jpg","stimuli/Outdoor activity & sport item.png","stimuli/Electronic device & accessory.png","stimuli/Hand labour tool & accessory.png","stimuli/Kitchen & utensil.png",NA,"Kitchen & utensil",4,1,"stimuli/objects/spicerack.jpg",NA,0,NA,1
26,378308,NA,NA,NA,NA,"stimuli/m_black.jpg","stimuli/Kitchen & utensil.png","stimuli/Outdoor activity & sport item.png","stimuli/Hand labour tool & accessory.png","stimuli/Electronic device & accessory.png",NA,"Kitchen & utensil",1,1,"stimuli/objects/icebucket.jpg",1,1,1.3583,1
