myownaccuracy,respcorrs,minNrPractice,considerNrTrials,Instr_resp.keys,Instr_resp.rt,key_resp_2.keys,key_resp_2.rt,instruction_loop.thisRepN,instruction_loop.thisTrialN,instruction_loop.thisN,instruction_loop.thisIndex,instruction_loop.ran,slides,participant,Expra Code,date,expName,psychopyVersion,OS,frameRate,taskGoresp.keys,taskGoresp.rt,pract_resp.keys,pract_resp.corr,myownaccuracyCORR,pract_loop.thisRepN,pract_loop.thisTrialN,pract_loop.thisN,pract_loop.thisIndex,pract_loop.ran,character,left_categ,centleft_categ,centright_categ,right_categ,trial_cond,corr_ans,corr_ans_num,type,img,rep_resp.keys,rep_resp.rt,repeat_practice.thisRepN,repeat_practice.thisTrialN,repeat_practice.thisN,repeat_practice.thisIndex,repeat_practice.ran,task_response.keys,task_response.corr,task_response.rt,task_loop.thisRepN,task_loop.thisTrialN,task_loop.thisN,task_loop.thisIndex,task_loop.ran,condition
[],[],10,10,space,1.0169,space,0.1397,0,0,0,0,1,stimuli/slide1.png,999,,2021-12-18_14h12.25.278,MemLear_ses-01_part-01_label-phase1,2020.1.3,MacIntel,60,,,,,,,,,,,,,,,,,,,,,,,,,,,,,,,,,,,,
,,,,,,space,0.1196,0,1,1,1,1,stimuli/slide2.png,999,,2021-12-18_14h12.25.278,MemLear_ses-01_part-01_label-phase1,2020.1.3,MacIntel,60,,,,,,,,,,,,,,,,,,,,,,,,,,,,,,,,,,,,
,,,,,,space,0.0892,0,2,2,2,1,stimuli/slide3.png,999,,2021-12-18_14h12.25.278,MemLear_ses-01_part-01_label-phase1,2020.1.3,MacIntel,60,,,,,,,,,,,,,,,,,,,,,,,,,,,,,,,,,,,,
,,,,,,space,0.0514,0,3,3,3,1,stimuli/slide4.png,999,,2021-12-18_14h12.25.278,MemLear_ses-01_part-01_label-phase1,2020.1.3,MacIntel,60,,,,,,,,,,,,,,,,,,,,,,,,,,,,,,,,,,,,
,,,,,,space,0.1338,0,4,4,4,1,stimuli/slide5.png,999,,2021-12-18_14h12.25.278,MemLear_ses-01_part-01_label-phase1,2020.1.3,MacIntel,60,,,,,,,,,,,,,,,,,,,,,,,,,,,,,,,,,,,,
,,,,,,space,0.0591,0,5,5,5,1,stimuli/slide6.png,999,,2021-12-18_14h12.25.278,MemLear_ses-01_part-01_label-phase1,2020.1.3,MacIntel,60,,,,,,,,,,,,,,,,,,,,,,,,,,,,,,,,,,,,
0,[],,,,,,,,,,,,,999,,2021-12-18_14h12.25.278,MemLear_ses-01_part-01_label-phase1,2020.1.3,MacIntel,60,space,0.3929,,0,0,0,0,0,0,1,stimuli/m_red.jpg,stimuli/Food.png,stimuli/Gamestoy & entertainment.png,stimuli/Vehicle.png,stimuli/Clothing.png,1,Food,1,1,stimuli/objects/chocolatecroissant.jpg,,,,,,,,,,,,,,,,
0,[0],,,,,,,,,,,,,999,,2021-12-18_14h12.25.278,MemLear_ses-01_part-01_label-phase1,2020.1.3,MacIntel,60,,,,0,0,0,1,1,1,1,stimuli/m_red.jpg,stimuli/Clothing.png,stimuli/Food.png,stimuli/Gamestoy & entertainment.png,stimuli/Vehicle.png,0,Vehicle,4,0,stimuli/objects/tricycle.jpg,,,,,,,,,,,,,,,,
0,[0],,,,,,,,,,,,,999,,2021-12-18_14h12.25.278,MemLear_ses-01_part-01_label-phase1,2020.1.3,MacIntel,60,,,,0,0,0,2,2,2,1,stimuli/m_blue.jpg,stimuli/Vehicle.png,stimuli/Clothing.png,stimuli/Gamestoy & entertainment.png,stimuli/Food.png,0,Food,4,0,stimuli/objects/cracker02.jpg,,,,,,,,,,,,,,,,
0,[0],,,,,,,,,,,,,999,,2021-12-18_14h12.25.278,MemLear_ses-01_part-01_label-phase1,2020.1.3,MacIntel,60,,,,0,0,0,3,3,3,1,stimuli/m_red.jpg,stimuli/Clothing.png,stimuli/Vehicle.png,stimuli/Gamestoy & entertainment.png,stimuli/Food.png,1,Food,4,1,stimuli/objects/hotdog.jpg,,,,,,,,,,,,,,,,
0,"[0,0]",,,,,,,,,,,,,999,,2021-12-18_14h12.25.278,MemLear_ses-01_part-01_label-phase1,2020.1.3,MacIntel,60,,,,0,0,0,4,4,4,1,stimuli/m_red.jpg,stimuli/Clothing.png,stimuli/Gamestoy & entertainment.png,stimuli/Food.png,stimuli/Vehicle.png,1,Food,3,1,stimuli/objects/kiwi03.jpg,,,,,,,,,,,,,,,,
0,"[0,0,0]",,,,,,,,,,,,,999,,2021-12-18_14h12.25.278,MemLear_ses-01_part-01_label-phase1,2020.1.3,MacIntel,60,,,,0,0,0,5,5,5,1,stimuli/m_red.jpg,stimuli/Vehicle.png,stimuli/Gamestoy & entertainment.png,stimuli/Food.png,stimuli/Clothing.png,1,Food,3,1,stimuli/objects/greenolive.jpg,,,,,,,,,,,,,,,,
0,"[0,0,0,0]",,,,,,,,,,,,,999,,2021-12-18_14h12.25.278,MemLear_ses-01_part-01_label-phase1,2020.1.3,MacIntel,60,,,,0,0,0,6,6,6,1,stimuli/m_blue.jpg,stimuli/Food.png,stimuli/Clothing.png,stimuli/Vehicle.png,stimuli/Gamestoy & entertainment.png,1,Gamestoy & entertainment,4,1,stimuli/objects/paperairplane.jpg,,,,,,,,,,,,,,,,
0,"[0,0,0,0,0]",,,,,,,,,,,,,999,,2021-12-18_14h12.25.278,MemLear_ses-01_part-01_label-phase1,2020.1.3,MacIntel,60,,,,0,0,0,7,7,7,1,stimuli/m_blue.jpg,stimuli/Vehicle.png,stimuli/Gamestoy & entertainment.png,stimuli/Food.png,stimuli/Clothing.png,1,Gamestoy & entertainment,2,1,stimuli/objects/toyanimal02.jpg,,,,,,,,,,,,,,,,
0,"[0,0,0,0,0,0]",,,,,,,,,,,,,999,,2021-12-18_14h12.25.278,MemLear_ses-01_part-01_label-phase1,2020.1.3,MacIntel,60,,,,0,0,0,8,8,8,1,stimuli/m_red.jpg,stimuli/Vehicle.png,stimuli/Clothing.png,stimuli/Gamestoy & entertainment.png,stimuli/Food.png,1,Food,4,1,stimuli/objects/casabamelon.jpg,,,,,,,,,,,,,,,,
0,"[0,0,0,0,0,0,0]",,,,,,,,,,,,,999,,2021-12-18_14h12.25.278,MemLear_ses-01_part-01_label-phase1,2020.1.3,MacIntel,60,,,,0,0,0,9,9,9,1,stimuli/m_blue.jpg,stimuli/Gamestoy & entertainment.png,stimuli/Clothing.png,stimuli/Vehicle.png,stimuli/Food.png,1,Gamestoy & entertainment,1,1,stimuli/objects/paddleball.jpg,,,,,,,,,,,,,,,,
0,"[0,0,0,0,0,0,0,0]",,,,,,,,,,,,,999,,2021-12-18_14h12.25.278,MemLear_ses-01_part-01_label-phase1,2020.1.3,MacIntel,60,,,,0,0,0,10,10,10,1,stimuli/m_blue.jpg,stimuli/Gamestoy & entertainment.png,stimuli/Clothing.png,stimuli/Food.png,stimuli/Vehicle.png,1,Gamestoy & entertainment,1,1,stimuli/objects/rockinghorse.jpg,,,,,,,,,,,,,,,,
0,"[0,0,0,0,0,0,0,0,0]",,,,,,,,,,,,,999,,2021-12-18_14h12.25.278,MemLear_ses-01_part-01_label-phase1,2020.1.3,MacIntel,60,,,,0,0,0,11,11,11,1,stimuli/m_red.jpg,stimuli/Vehicle.png,stimuli/Food.png,stimuli/Clothing.png,stimuli/Gamestoy & entertainment.png,1,Food,2,1,stimuli/objects/arugula.jpg,,,,,,,,,,,,,,,,
0,"[0,0,0,0,0,0,0,0,0,0]",,,,,,,,,,,,,999,,2021-12-18_14h12.25.278,MemLear_ses-01_part-01_label-phase1,2020.1.3,MacIntel,60,,,,0,0,0,12,12,12,1,stimuli/m_blue.jpg,stimuli/Food.png,stimuli/Clothing.png,stimuli/Gamestoy & entertainment.png,stimuli/Vehicle.png,1,Gamestoy & entertainment,3,1,stimuli/objects/dartboard.jpg,,,,,,,,,,,,,,,,
0,"[0,0,0,0,0,0,0,0,0,0,0]",,,,,,,,,,,,,999,,2021-12-18_14h12.25.278,MemLear_ses-01_part-01_label-phase1,2020.1.3,MacIntel,60,,,,0,0,0,13,13,13,1,stimuli/m_red.jpg,stimuli/Clothing.png,stimuli/Gamestoy & entertainment.png,stimuli/Vehicle.png,stimuli/Food.png,1,Food,4,1,stimuli/objects/chickenshishkebab.jpg,,,,,,,,,,,,,,,,
0,"[0,0,0,0,0,0,0,0,0,0,0,0]",,,,,,,,,,,,,999,,2021-12-18_14h12.25.278,MemLear_ses-01_part-01_label-phase1,2020.1.3,MacIntel,60,,,,0,0,0,14,14,14,1,stimuli/m_red.jpg,stimuli/Clothing.png,stimuli/Gamestoy & entertainment.png,stimuli/Food.png,stimuli/Vehicle.png,1,Food,3,1,stimuli/objects/relish.jpg,,,,,,,,,,,,,,,,
0,"[0,0,0,0,0,0,0,0,0,0,0,0,0]",,,,,,,,,,,,,999,,2021-12-18_14h12.25.278,MemLear_ses-01_part-01_label-phase1,2020.1.3,MacIntel,60,,,,0,0,0,15,15,15,1,stimuli/m_blue.jpg,stimuli/Food.png,stimuli/Gamestoy & entertainment.png,stimuli/Clothing.png,stimuli/Vehicle.png,1,Gamestoy & entertainment,2,1,stimuli/objects/toyanimal01.jpg,,,,,,,,,,,,,,,,
0,"[0,0,0,0,0,0,0,0,0,0,0,0,0,0]",,,,,,,,,,,,,999,,2021-12-18_14h12.25.278,MemLear_ses-01_part-01_label-phase1,2020.1.3,MacIntel,60,,,,0,0,0,16,16,16,1,stimuli/m_red.jpg,stimuli/Food.png,stimuli/Vehicle.png,stimuli/Clothing.png,stimuli/Gamestoy & entertainment.png,0,Gamestoy & entertainment,4,0,stimuli/objects/toyshape.jpg,,,,,,,,,,,,,,,,
0,"[0,0,0,0,0,0,0,0,0,0,0,0,0,0]",,,,,,,,,,,,,999,,2021-12-18_14h12.25.278,MemLear_ses-01_part-01_label-phase1,2020.1.3,MacIntel,60,,,,0,0,0,17,17,17,1,stimuli/m_blue.jpg,stimuli/Food.png,stimuli/Gamestoy & entertainment.png,stimuli/Vehicle.png,stimuli/Clothing.png,1,Gamestoy & entertainment,2,1,stimuli/objects/rattle.jpg,,,,,,,,,,,,,,,,
0,"[0,0,0,0,0,0,0,0,0,0,0,0,0,0,0]",,,,,,,,,,,,,999,,2021-12-18_14h12.25.278,MemLear_ses-01_part-01_label-phase1,2020.1.3,MacIntel,60,,,,0,0,0,18,18,18,1,stimuli/m_blue.jpg,stimuli/Clothing.png,stimuli/Food.png,stimuli/Gamestoy & entertainment.png,stimuli/Vehicle.png,0,Vehicle,4,0,stimuli/objects/cementtruck.jpg,,,,,,,,,,,,,,,,
0,"[0,0,0,0,0,0,0,0,0,0,0,0,0,0,0]",,,,,,,,,,,,,999,,2021-12-18_14h12.25.278,MemLear_ses-01_part-01_label-phase1,2020.1.3,MacIntel,60,,,,0,0,0,19,19,19,1,stimuli/m_red.jpg,stimuli/Vehicle.png,stimuli/Gamestoy & entertainment.png,stimuli/Clothing.png,stimuli/Food.png,0,Vehicle,1,0,stimuli/objects/scissorlift.jpg,,,,,,,,,,,,,,,,
0,"[0,0,0,0,0,0,0,0,0,0,0,0,0,0,0]",,,,,,,,,,,,,999,,2021-12-18_14h12.25.278,MemLear_ses-01_part-01_label-phase1,2020.1.3,MacIntel,60,,,,0,0,0,20,20,20,1,stimuli/m_blue.jpg,stimuli/Gamestoy & entertainment.png,stimuli/Food.png,stimuli/Vehicle.png,stimuli/Clothing.png,1,Gamestoy & entertainment,1,1,stimuli/objects/toydinosaur.jpg,,,,,,,,,,,,,,,,
0,"[0,0,0,0,0,0,0,0,0,0,0,0,0,0,0,0]",,,,,,,,,,,,,999,,2021-12-18_14h12.25.278,MemLear_ses-01_part-01_label-phase1,2020.1.3,MacIntel,60,,,,0,0,0,21,21,21,1,stimuli/m_blue.jpg,stimuli/Clothing.png,stimuli/Vehicle.png,stimuli/Food.png,stimuli/Gamestoy & entertainment.png,1,Gamestoy & entertainment,4,1,stimuli/objects/sandbagthrowgame.jpg,,,,,,,,,,,,,,,,
0,"[0,0,0,0,0,0,0,0,0,0,0,0,0,0,0,0,0]",,,,,,,,,,,,,999,,2021-12-18_14h12.25.278,MemLear_ses-01_part-01_label-phase1,2020.1.3,MacIntel,60,,,,0,0,0,22,22,22,1,stimuli/m_blue.jpg,stimuli/Food.png,stimuli/Gamestoy & entertainment.png,stimuli/Clothing.png,stimuli/Vehicle.png,0,Clothing,3,0,stimuli/objects/hikingshoe01.jpg,,,,,,,,,,,,,,,,
0,"[0,0,0,0,0,0,0,0,0,0,0,0,0,0,0,0,0]",,,,,,,,,,,,,999,,2021-12-18_14h12.25.278,MemLear_ses-01_part-01_label-phase1,2020.1.3,MacIntel,60,,,,0,0,0,23,23,23,1,stimuli/m_blue.jpg,stimuli/Food.png,stimuli/Clothing.png,stimuli/Vehicle.png,stimuli/Gamestoy & entertainment.png,1,Gamestoy & entertainment,4,1,stimuli/objects/beachpaddle01a.jpg,,,,,,,,,,,,,,,,
0,"[0,0,0,0,0,0,0,0,0,0,0,0,0,0,0,0,0,0]",,,,,,,,,,,,,999,,2021-12-18_14h12.25.278,MemLear_ses-01_part-01_label-phase1,2020.1.3,MacIntel,60,,,,0,0,0,24,24,24,1,stimuli/m_red.jpg,stimuli/Food.png,stimuli/Gamestoy & entertainment.png,stimuli/Clothing.png,stimuli/Vehicle.png,1,Food,1,1,stimuli/objects/apricot.jpg,,,,,,,,,,,,,,,,
0,"[0,0,0,0,0,0,0,0,0,0,0,0,0,0,0,0,0,0,0]",,,,,,,,,,,,,999,,2021-12-18_14h12.25.278,MemLear_ses-01_part-01_label-phase1,2020.1.3,MacIntel,60,,,,0,0,0,25,25,25,1,stimuli/m_blue.jpg,stimuli/Food.png,stimuli/Vehicle.png,stimuli/Gamestoy & entertainment.png,stimuli/Clothing.png,0,Food,1,0,stimuli/objects/croissant01.jpg,,,,,,,,,,,,,,,,
0,"[0,0,0,0,0,0,0,0,0,0,0,0,0,0,0,0,0,0,0]",,,,,,,,,,,,,999,,2021-12-18_14h12.25.278,MemLear_ses-01_part-01_label-phase1,2020.1.3,MacIntel,60,,,,0,0,0,26,26,26,1,stimuli/m_red.jpg,stimuli/Clothing.png,stimuli/Food.png,stimuli/Vehicle.png,stimuli/Gamestoy & entertainment.png,1,Food,2,1,stimuli/objects/icecreamcone01a.jpg,,,,,,,,,,,,,,,,
0,"[0,0,0,0,0,0,0,0,0,0,0,0,0,0,0,0,0,0,0,0]",,,,,,,,,,,,,999,,2021-12-18_14h12.25.278,MemLear_ses-01_part-01_label-phase1,2020.1.3,MacIntel,60,,,,0,0,0,27,27,27,1,stimuli/m_blue.jpg,stimuli/Clothing.png,stimuli/Food.png,stimuli/Vehicle.png,stimuli/Gamestoy & entertainment.png,0,Clothing,1,0,stimuli/objects/tie02.jpg,,,,,,,,,,,,,,,,
0,"[0,0,0,0,0,0,0,0,0,0,0,0,0,0,0,0,0,0,0,0]",,,,,,,,,,,,,999,,2021-12-18_14h12.25.278,MemLear_ses-01_part-01_label-phase1,2020.1.3,MacIntel,60,,,,0,0,0,28,28,28,1,stimuli/m_blue.jpg,stimuli/Vehicle.png,stimuli/Gamestoy & entertainment.png,stimuli/Clothing.png,stimuli/Food.png,1,Gamestoy & entertainment,2,1,stimuli/objects/marble.jpg,,,,,,,,,,,,,,,,
0,"[0,0,0,0,0,0,0,0,0,0,0,0,0,0,0,0,0,0,0,0,0]",,,,,,,,,,,,,999,,2021-12-18_14h12.25.278,MemLear_ses-01_part-01_label-phase1,2020.1.3,MacIntel,60,,,,0,0,0,29,29,29,1,stimuli/m_red.jpg,stimuli/Gamestoy & entertainment.png,stimuli/Vehicle.png,stimuli/Food.png,stimuli/Clothing.png,1,Food,3,1,stimuli/objects/baguette01.jpg,,,,,,,,,,,,,,,,
0,"[0,0,0,0,0,0,0,0,0,0,0,0,0,0,0,0,0,0,0,0,0,0]",,,,,,,,,,,,,999,,2021-12-18_14h12.25.278,MemLear_ses-01_part-01_label-phase1,2020.1.3,MacIntel,60,,,,0,0,0,30,30,30,1,stimuli/m_blue.jpg,stimuli/Gamestoy & entertainment.png,stimuli/Vehicle.png,stimuli/Food.png,stimuli/Clothing.png,1,Gamestoy & entertainment,1,1,stimuli/objects/pusharoundtoy.jpg,,,,,,,,,,,,,,,,
0,"[0,0,0,0,0,0,0,0,0,0,0,0,0,0,0,0,0,0,0,0,0,0,0]",,,,,,,,,,,,,999,,2021-12-18_14h12.25.278,MemLear_ses-01_part-01_label-phase1,2020.1.3,MacIntel,60,,,,0,0,0,31,31,31,1,stimuli/m_blue.jpg,stimuli/Food.png,stimuli/Vehicle.png,stimuli/Clothing.png,stimuli/Gamestoy & entertainment.png,1,Gamestoy & entertainment,4,1,stimuli/objects/puzzlepiece.jpg,,,,,,,,,,,,,,,,
0,"[0,0,0,0,0,0,0,0,0,0,0,0,0,0,0,0,0,0,0,0,0,0,0,0]",,,,,,,,,,,,,999,,2021-12-18_14h12.25.278,MemLear_ses-01_part-01_label-phase1,2020.1.3,MacIntel,60,,,,0,0,0,32,32,32,1,stimuli/m_blue.jpg,stimuli/Gamestoy & entertainment.png,stimuli/Vehicle.png,stimuli/Clothing.png,stimuli/Food.png,1,Gamestoy & entertainment,1,1,stimuli/objects/interlockingbuildingblock03b.jpg,,,,,,,,,,,,,,,,
0,"[0,0,0,0,0,0,0,0,0,0,0,0,0,0,0,0,0,0,0,0,0,0,0,0,0]",,,,,,,,,,,,,999,,2021-12-18_14h12.25.278,MemLear_ses-01_part-01_label-phase1,2020.1.3,MacIntel,60,,,,0,0,0,33,33,33,1,stimuli/m_blue.jpg,stimuli/Vehicle.png,stimuli/Food.png,stimuli/Clothing.png,stimuli/Gamestoy & entertainment.png,1,Gamestoy & entertainment,4,1,stimuli/objects/airhockeytable.jpg,,,,,,,,,,,,,,,,
0,"[0,0,0,0,0,0,0,0,0,0,0,0,0,0,0,0,0,0,0,0,0,0,0,0,0,0]",,,,,,,,,,,,,999,,2021-12-18_14h12.25.278,MemLear_ses-01_part-01_label-phase1,2020.1.3,MacIntel,60,,,,0,0,0,34,34,34,1,stimuli/m_red.jpg,stimuli/Vehicle.png,stimuli/Food.png,stimuli/Gamestoy & entertainment.png,stimuli/Clothing.png,1,Food,2,1,stimuli/objects/tortilla.jpg,,,,,,,,,,,,,,,,
0,"[0,0,0,0,0,0,0,0,0,0,0,0,0,0,0,0,0,0,0,0,0,0,0,0,0,0,0]",,,,,,,,,,,,,999,,2021-12-18_14h12.25.278,MemLear_ses-01_part-01_label-phase1,2020.1.3,MacIntel,60,,,,0,0,0,35,35,35,1,stimuli/m_red.jpg,stimuli/Clothing.png,stimuli/Vehicle.png,stimuli/Gamestoy & entertainment.png,stimuli/Food.png,0,Gamestoy & entertainment,3,0,stimuli/objects/chessknight03a.jpg,,,,,,,,,,,,,,,,
0,"[0,0,0,0,0,0,0,0,0,0,0,0,0,0,0,0,0,0,0,0,0,0,0,0,0,0,0]",,,,,,,,,,,,,999,,2021-12-18_14h12.25.278,MemLear_ses-01_part-01_label-phase1,2020.1.3,MacIntel,60,,,,0,0,0,36,36,36,1,stimuli/m_blue.jpg,stimuli/Clothing.png,stimuli/Food.png,stimuli/Gamestoy & entertainment.png,stimuli/Vehicle.png,1,Gamestoy & entertainment,3,1,stimuli/objects/toyanimal05.jpg,,,,,,,,,,,,,,,,
0,"[0,0,0,0,0,0,0,0,0,0,0,0,0,0,0,0,0,0,0,0,0,0,0,0,0,0,0,0]",,,,,,,,,,,,,999,,2021-12-18_14h12.25.278,MemLear_ses-01_part-01_label-phase1,2020.1.3,MacIntel,60,,,,0,0,0,37,37,37,1,stimuli/m_blue.jpg,stimuli/Vehicle.png,stimuli/Food.png,stimuli/Clothing.png,stimuli/Gamestoy & entertainment.png,1,Gamestoy & entertainment,4,1,stimuli/objects/puppettheatre.jpg,,,,,,,,,,,,,,,,
0,"[0,0,0,0,0,0,0,0,0,0,0,0,0,0,0,0,0,0,0,0,0,0,0,0,0,0,0,0,0]",,,,,,,,,,,,,999,,2021-12-18_14h12.25.278,MemLear_ses-01_part-01_label-phase1,2020.1.3,MacIntel,60,,,,0,0,0,38,38,38,1,stimuli/m_blue.jpg,stimuli/Gamestoy & entertainment.png,stimuli/Clothing.png,stimuli/Vehicle.png,stimuli/Food.png,0,Food,4,0,stimuli/objects/salsa.jpg,,,,,,,,,,,,,,,,
0,"[0,0,0,0,0,0,0,0,0,0,0,0,0,0,0,0,0,0,0,0,0,0,0,0,0,0,0,0,0]",,,,,,,,,,,,,999,,2021-12-18_14h12.25.278,MemLear_ses-01_part-01_label-phase1,2020.1.3,MacIntel,60,,,,0,0,0,39,39,39,1,stimuli/m_red.jpg,stimuli/Gamestoy & entertainment.png,stimuli/Vehicle.png,stimuli/Clothing.png,stimuli/Food.png,1,Food,4,1,stimuli/objects/walnut01c.jpg,,,,,,,,,,,,,,,,
0,"[0,0,0,0,0,0,0,0,0,0,0,0,0,0,0,0,0,0,0,0,0,0,0,0,0,0,0,0,0,0]",,,,,,,,,,,,,999,,2021-12-18_14h12.25.278,MemLear_ses-01_part-01_label-phase1,2020.1.3,MacIntel,60,,,,0,0,0,40,40,40,1,stimuli/m_red.jpg,stimuli/Gamestoy & entertainment.png,stimuli/Clothing.png,stimuli/Vehicle.png,stimuli/Food.png,1,Food,4,1,stimuli/objects/potato02b.jpg,,,,,,,,,,,,,,,,
0,"[0,0,0,0,0,0,0,0,0,0,0,0,0,0,0,0,0,0,0,0,0,0,0,0,0,0,0,0,0,0,0]",,,,,,,,,,,,,999,,2021-12-18_14h12.25.278,MemLear_ses-01_part-01_label-phase1,2020.1.3,MacIntel,60,,,,0,0,0,41,41,41,1,stimuli/m_blue.jpg,stimuli/Clothing.png,stimuli/Vehicle.png,stimuli/Gamestoy & entertainment.png,stimuli/Food.png,0,Clothing,1,0,stimuli/objects/sheriffhat.jpg,,,,,,,,,,,,,,,,
0,"[0,0,0,0,0,0,0,0,0,0,0,0,0,0,0,0,0,0,0,0,0,0,0,0,0,0,0,0,0,0,0]",,,,,,,,,,,,,999,,2021-12-18_14h12.25.278,MemLear_ses-01_part-01_label-phase1,2020.1.3,MacIntel,60,,,,0,0,0,42,42,42,1,stimuli/m_red.jpg,stimuli/Vehicle.png,stimuli/Gamestoy & entertainment.png,stimuli/Clothing.png,stimuli/Food.png,1,Food,4,1,stimuli/objects/spaghetti01.jpg,,,,,,,,,,,,,,,,
0,"[0,0,0,0,0,0,0,0,0,0,0,0,0,0,0,0,0,0,0,0,0,0,0,0,0,0,0,0,0,0,0,0]",,,,,,,,,,,,,999,,2021-12-18_14h12.25.278,MemLear_ses-01_part-01_label-phase1,2020.1.3,MacIntel,60,,,,0,0,0,43,43,43,1,stimuli/m_red.jpg,stimuli/Gamestoy & entertainment.png,stimuli/Vehicle.png,stimuli/Clothing.png,stimuli/Food.png,1,Food,4,1,stimuli/objects/zucchini01.jpg,,,,,,,,,,,,,,,,
0,"[0,0,0,0,0,0,0,0,0,0,0,0,0,0,0,0,0,0,0,0,0,0,0,0,0,0,0,0,0,0,0,0,0]",,,,,,,,,,,,,999,,2021-12-18_14h12.25.278,MemLear_ses-01_part-01_label-phase1,2020.1.3,MacIntel,60,,,,0,0,0,44,44,44,1,stimuli/m_red.jpg,stimuli/Gamestoy & entertainment.png,stimuli/Vehicle.png,stimuli/Food.png,stimuli/Clothing.png,1,Food,3,1,stimuli/objects/donut.jpg,,,,,,,,,,,,,,,,
0,"[0,0,0,0,0,0,0,0,0,0,0,0,0,0,0,0,0,0,0,0,0,0,0,0,0,0,0,0,0,0,0,0,0,0]",,,,,,,,,,,,,999,,2021-12-18_14h12.25.278,MemLear_ses-01_part-01_label-phase1,2020.1.3,MacIntel,60,,,,0,0,0,45,45,45,1,stimuli/m_blue.jpg,stimuli/Clothing.png,stimuli/Gamestoy & entertainment.png,stimuli/Food.png,stimuli/Vehicle.png,1,Gamestoy & entertainment,2,1,stimuli/objects/bridgestick.jpg,,,,,,,,,,,,,,,,
0,"[0,0,0,0,0,0,0,0,0,0,0,0,0,0,0,0,0,0,0,0,0,0,0,0,0,0,0,0,0,0,0,0,0,0,0]",,,,,,,,,,,,,999,,2021-12-18_14h12.25.278,MemLear_ses-01_part-01_label-phase1,2020.1.3,MacIntel,60,,,,0,0,0,46,46,46,1,stimuli/m_red.jpg,stimuli/Food.png,stimuli/Clothing.png,stimuli/Vehicle.png,stimuli/Gamestoy & entertainment.png,1,Food,1,1,stimuli/objects/cookie01.jpg,,,,,,,,,,,,,,,,
0,"[0,0,0,0,0,0,0,0,0,0,0,0,0,0,0,0,0,0,0,0,0,0,0,0,0,0,0,0,0,0,0,0,0,0,0,0]",,,,,,,,,,,,,999,,2021-12-18_14h12.25.278,MemLear_ses-01_part-01_label-phase1,2020.1.3,MacIntel,60,,,,0,0,0,47,47,47,1,stimuli/m_red.jpg,stimuli/Clothing.png,stimuli/Food.png,stimuli/Vehicle.png,stimuli/Gamestoy & entertainment.png,0,Gamestoy & entertainment,4,0,stimuli/objects/rubikcube.jpg,,,,,,,,,,,,,,,,
0,"[0,0,0,0,0,0,0,0,0,0,0,0,0,0,0,0,0,0,0,0,0,0,0,0,0,0,0,0,0,0,0,0,0,0,0,0]",,,,,,,,,,,,,999,,2021-12-18_14h12.25.278,MemLear_ses-01_part-01_label-phase1,2020.1.3,MacIntel,60,,,,0,0,0,48,48,48,1,stimuli/m_red.jpg,stimuli/Clothing.png,stimuli/Vehicle.png,stimuli/Food.png,stimuli/Gamestoy & entertainment.png,1,Food,3,1,stimuli/objects/grape01.jpg,,,,,,,,,,,,,,,,
0,"[0,0,0,0,0,0,0,0,0,0,0,0,0,0,0,0,0,0,0,0,0,0,0,0,0,0,0,0,0,0,0,0,0,0,0,0,0]",,,,,,,,,,,,,999,,2021-12-18_14h12.25.278,MemLear_ses-01_part-01_label-phase1,2020.1.3,MacIntel,60,,,,0,0,0,49,49,49,1,stimuli/m_blue.jpg,stimuli/Vehicle.png,stimuli/Gamestoy & entertainment.png,stimuli/Clothing.png,stimuli/Food.png,0,Vehicle,1,0,stimuli/objects/schoolbus.jpg,,,,,,,,,,,,,,,,
0,"[0,0,0,0,0,0,0,0,0,0,0,0,0,0,0,0,0,0,0,0,0,0,0,0,0,0,0,0,0,0,0,0,0,0,0,0,0]",,,,,,,,,,,,,999,,2021-12-18_14h12.25.278,MemLear_ses-01_part-01_label-phase1,2020.1.3,MacIntel,60,,,,0,0,0,50,50,50,1,stimuli/m_blue.jpg,stimuli/Gamestoy & entertainment.png,stimuli/Vehicle.png,stimuli/Food.png,stimuli/Clothing.png,1,Gamestoy & entertainment,1,1,stimuli/objects/pooltable.jpg,,,,,,,,,,,,,,,,
0,"[0,0,0,0,0,0,0,0,0,0,0,0,0,0,0,0,0,0,0,0,0,0,0,0,0,0,0,0,0,0,0,0,0,0,0,0,0,0]",,,,,,,,,,,,,999,,2021-12-18_14h12.25.278,MemLear_ses-01_part-01_label-phase1,2020.1.3,MacIntel,60,,,,0,0,0,51,51,51,1,stimuli/m_red.jpg,stimuli/Food.png,stimuli/Gamestoy & entertainment.png,stimuli/Clothing.png,stimuli/Vehicle.png,0,Gamestoy & entertainment,2,0,stimuli/objects/toyanimal03.jpg,,,,,,,,,,,,,,,,
0,"[0,0,0,0,0,0,0,0,0,0,0,0,0,0,0,0,0,0,0,0,0,0,0,0,0,0,0,0,0,0,0,0,0,0,0,0,0,0]",,,,,,,,,,,,,999,,2021-12-18_14h12.25.278,MemLear_ses-01_part-01_label-phase1,2020.1.3,MacIntel,60,,,,0,0,0,52,52,52,1,stimuli/m_red.jpg,stimuli/Food.png,stimuli/Clothing.png,stimuli/Vehicle.png,stimuli/Gamestoy & entertainment.png,1,Food,1,1,stimuli/objects/almond.jpg,,,,,,,,,,,,,,,,
0,"[0,0,0,0,0,0,0,0,0,0,0,0,0,0,0,0,0,0,0,0,0,0,0,0,0,0,0,0,0,0,0,0,0,0,0,0,0,0,0]",,,,,,,,,,,,,999,,2021-12-18_14h12.25.278,MemLear_ses-01_part-01_label-phase1,2020.1.3,MacIntel,60,,,,0,0,0,53,53,53,1,stimuli/m_blue.jpg,stimuli/Clothing.png,stimuli/Vehicle.png,stimuli/Gamestoy & entertainment.png,stimuli/Food.png,1,Gamestoy & entertainment,3,1,stimuli/objects/jokercard.jpg,,,,,,,,,,,,,,,,
0,"[0,0,0,0,0,0,0,0,0,0,0,0,0,0,0,0,0,0,0,0,0,0,0,0,0,0,0,0,0,0,0,0,0,0,0,0,0,0,0,0]",,,,,,,,,,,,,999,,2021-12-18_14h12.25.278,MemLear_ses-01_part-01_label-phase1,2020.1.3,MacIntel,60,,,,0,0,0,54,54,54,1,stimuli/m_red.jpg,stimuli/Food.png,stimuli/Vehicle.png,stimuli/Gamestoy & entertainment.png,stimuli/Clothing.png,0,Clothing,4,0,stimuli/objects/moccasin.jpg,,,,,,,,,,,,,,,,
0,"[0,0,0,0,0,0,0,0,0,0,0,0,0,0,0,0,0,0,0,0,0,0,0,0,0,0,0,0,0,0,0,0,0,0,0,0,0,0,0,0]",,,,,,,,,,,,,999,,2021-12-18_14h12.25.278,MemLear_ses-01_part-01_label-phase1,2020.1.3,MacIntel,60,,,,0,0,0,55,55,55,1,stimuli/m_red.jpg,stimuli/Clothing.png,stimuli/Gamestoy & entertainment.png,stimuli/Vehicle.png,stimuli/Food.png,0,Vehicle,3,0,stimuli/objects/tractor.jpg,,,,,,,,,,,,,,,,
0,"[0,0,0,0,0,0,0,0,0,0,0,0,0,0,0,0,0,0,0,0,0,0,0,0,0,0,0,0,0,0,0,0,0,0,0,0,0,0,0,0]",,,,,,,,,,,,,999,,2021-12-18_14h12.25.278,MemLear_ses-01_part-01_label-phase1,2020.1.3,MacIntel,60,,,,0,0,0,56,56,56,1,stimuli/m_blue.jpg,stimuli/Food.png,stimuli/Gamestoy & entertainment.png,stimuli/Vehicle.png,stimuli/Clothing.png,1,Gamestoy & entertainment,2,1,stimuli/objects/bowlingpin.jpg,,,,,,,,,,,,,,,,
0,"[0,0,0,0,0,0,0,0,0,0,0,0,0,0,0,0,0,0,0,0,0,0,0,0,0,0,0,0,0,0,0,0,0,0,0,0,0,0,0,0,0]",,,,,,,,,,,,,999,,2021-12-18_14h12.25.278,MemLear_ses-01_part-01_label-phase1,2020.1.3,MacIntel,60,,,,0,0,0,57,57,57,1,stimuli/m_red.jpg,stimuli/Vehicle.png,stimuli/Gamestoy & entertainment.png,stimuli/Food.png,stimuli/Clothing.png,0,Vehicle,1,0,stimuli/objects/gardenutilityvehicle.jpg,,,,,,,,,,,,,,,,
0,"[0,0,0,0,0,0,0,0,0,0,0,0,0,0,0,0,0,0,0,0,0,0,0,0,0,0,0,0,0,0,0,0,0,0,0,0,0,0,0,0,0]",,,,,,,,,,,,,999,,2021-12-18_14h12.25.278,MemLear_ses-01_part-01_label-phase1,2020.1.3,MacIntel,60,,,,0,0,0,58,58,58,1,stimuli/m_blue.jpg,stimuli/Vehicle.png,stimuli/Gamestoy & entertainment.png,stimuli/Food.png,stimuli/Clothing.png,0,Vehicle,1,0,stimuli/objects/windsurfboard.jpg,,,,,,,,,,,,,,,,
0,"[0,0,0,0,0,0,0,0,0,0,0,0,0,0,0,0,0,0,0,0,0,0,0,0,0,0,0,0,0,0,0,0,0,0,0,0,0,0,0,0,0]",,,,,,,,,,,,,999,,2021-12-18_14h12.25.278,MemLear_ses-01_part-01_label-phase1,2020.1.3,MacIntel,60,,,,0,0,0,59,59,59,1,stimuli/m_red.jpg,stimuli/Food.png,stimuli/Gamestoy & entertainment.png,stimuli/Vehicle.png,stimuli/Clothing.png,1,Food,1,1,stimuli/objects/eggnoodle.jpg,,,,,,,,,,,,,,,,
0,"[0,0,0,0,0,0,0,0,0,0,0,0,0,0,0,0,0,0,0,0,0,0,0,0,0,0,0,0,0,0,0,0,0,0,0,0,0,0,0,0,0,0]",,,,,,,,,,,,,999,,2021-12-18_14h12.25.278,MemLear_ses-01_part-01_label-phase1,2020.1.3,MacIntel,60,,,,0,0,0,60,60,60,1,stimuli/m_blue.jpg,stimuli/Clothing.png,stimuli/Gamestoy & entertainment.png,stimuli/Food.png,stimuli/Vehicle.png,1,Gamestoy & entertainment,2,1,stimuli/objects/sandshovel02a.jpg,,,,,,,,,,,,,,,,
0,"[0,0,0,0,0,0,0,0,0,0,0,0,0,0,0,0,0,0,0,0,0,0,0,0,0,0,0,0,0,0,0,0,0,0,0,0,0,0,0,0,0,0,0]",,,,,,,,,,,,,999,,2021-12-18_14h12.25.278,MemLear_ses-01_part-01_label-phase1,2020.1.3,MacIntel,60,,,,0,0,0,61,61,61,1,stimuli/m_red.jpg,stimuli/Gamestoy & entertainment.png,stimuli/Clothing.png,stimuli/Vehicle.png,stimuli/Food.png,0,Clothing,2,0,stimuli/objects/soccercleat01.jpg,,,,,,,,,,,,,,,,
0,"[0,0,0,0,0,0,0,0,0,0,0,0,0,0,0,0,0,0,0,0,0,0,0,0,0,0,0,0,0,0,0,0,0,0,0,0,0,0,0,0,0,0,0]",,,,,,,,,,,,,999,,2021-12-18_14h12.25.278,MemLear_ses-01_part-01_label-phase1,2020.1.3,MacIntel,60,,,,0,0,0,62,62,62,1,stimuli/m_red.jpg,stimuli/Gamestoy & entertainment.png,stimuli/Clothing.png,stimuli/Food.png,stimuli/Vehicle.png,0,Clothing,2,0,stimuli/objects/witchhat.jpg,,,,,,,,,,,,,,,,
0,"[0,0,0,0,0,0,0,0,0,0,0,0,0,0,0,0,0,0,0,0,0,0,0,0,0,0,0,0,0,0,0,0,0,0,0,0,0,0,0,0,0,0,0]",,,,,,,,,,,,,999,,2021-12-18_14h12.25.278,MemLear_ses-01_part-01_label-phase1,2020.1.3,MacIntel,60,,,,0,0,0,63,63,63,1,stimuli/m_blue.jpg,stimuli/Clothing.png,stimuli/Gamestoy & entertainment.png,stimuli/Vehicle.png,stimuli/Food.png,1,Gamestoy & entertainment,2,1,stimuli/objects/highstrikergame.jpg,,,,,,,,,,,,,,,,
0,"[0,0,0,0,0,0,0,0,0,0,0,0,0,0,0,0,0,0,0,0,0,0,0,0,0,0,0,0,0,0,0,0,0,0,0,0,0,0,0,0,0,0,0,0]",,,,,,,,,,,,,999,,2021-12-18_14h12.25.278,MemLear_ses-01_part-01_label-phase1,2020.1.3,MacIntel,60,,,,0,0,0,64,64,64,1,stimuli/m_red.jpg,stimuli/Gamestoy & entertainment.png,stimuli/Food.png,stimuli/Vehicle.png,stimuli/Clothing.png,1,Food,2,1,stimuli/objects/pecan02.jpg,,,,,,,,,,,,,,,,
0,"[0,0,0,0,0,0,0,0,0,0,0,0,0,0,0,0,0,0,0,0,0,0,0,0,0,0,0,0,0,0,0,0,0,0,0,0,0,0,0,0,0,0,0,0,0]",,,,,,,,,,,,,999,,2021-12-18_14h12.25.278,MemLear_ses-01_part-01_label-phase1,2020.1.3,MacIntel,60,,,,0,0,0,65,65,65,1,stimuli/m_blue.jpg,stimuli/Vehicle.png,stimuli/Food.png,stimuli/Gamestoy & entertainment.png,stimuli/Clothing.png,1,Gamestoy & entertainment,3,1,stimuli/objects/pacifier02d.jpg,,,,,,,,,,,,,,,,
0,"[0,0,0,0,0,0,0,0,0,0,0,0,0,0,0,0,0,0,0,0,0,0,0,0,0,0,0,0,0,0,0,0,0,0,0,0,0,0,0,0,0,0,0,0,0,0]",,,,,,,,,,,,,999,,2021-12-18_14h12.25.278,MemLear_ses-01_part-01_label-phase1,2020.1.3,MacIntel,60,,,,0,0,0,66,66,66,1,stimuli/m_blue.jpg,stimuli/Clothing.png,stimuli/Food.png,stimuli/Vehicle.png,stimuli/Gamestoy & entertainment.png,1,Gamestoy & entertainment,4,1,stimuli/objects/pooltriangle.jpg,,,,,,,,,,,,,,,,
0,"[0,0,0,0,0,0,0,0,0,0,0,0,0,0,0,0,0,0,0,0,0,0,0,0,0,0,0,0,0,0,0,0,0,0,0,0,0,0,0,0,0,0,0,0,0,0,0]",,,,,,,,,,,,,999,,2021-12-18_14h12.25.278,MemLear_ses-01_part-01_label-phase1,2020.1.3,MacIntel,60,,,,0,0,0,67,67,67,1,stimuli/m_red.jpg,stimuli/Vehicle.png,stimuli/Clothing.png,stimuli/Gamestoy & entertainment.png,stimuli/Food.png,0,Clothing,2,0,stimuli/objects/sock01a.jpg,,,,,,,,,,,,,,,,
0,"[0,0,0,0,0,0,0,0,0,0,0,0,0,0,0,0,0,0,0,0,0,0,0,0,0,0,0,0,0,0,0,0,0,0,0,0,0,0,0,0,0,0,0,0,0,0,0]",,,,,,,,,,,,,999,,2021-12-18_14h12.25.278,MemLear_ses-01_part-01_label-phase1,2020.1.3,MacIntel,60,,,,0,0,0,68,68,68,1,stimuli/m_red.jpg,stimuli/Gamestoy & entertainment.png,stimuli/Food.png,stimuli/Clothing.png,stimuli/Vehicle.png,1,Food,2,1,stimuli/objects/kiwi01a.jpg,,,,,,,,,,,,,,,,
0,"[0,0,0,0,0,0,0,0,0,0,0,0,0,0,0,0,0,0,0,0,0,0,0,0,0,0,0,0,0,0,0,0,0,0,0,0,0,0,0,0,0,0,0,0,0,0,0,0]",,,,,,,,,,,,,999,,2021-12-18_14h12.25.278,MemLear_ses-01_part-01_label-phase1,2020.1.3,MacIntel,60,,,,0,0,0,69,69,69,1,stimuli/m_blue.jpg,stimuli/Vehicle.png,stimuli/Clothing.png,stimuli/Gamestoy & entertainment.png,stimuli/Food.png,1,Gamestoy & entertainment,3,1,stimuli/objects/playingcard.jpg,,,,,,,,,,,,,,,,
0,"[0,0,0,0,0,0,0,0,0,0,0,0,0,0,0,0,0,0,0,0,0,0,0,0,0,0,0,0,0,0,0,0,0,0,0,0,0,0,0,0,0,0,0,0,0,0,0,0,0]",,,,,,,,,,,,,999,,2021-12-18_14h12.25.278,MemLear_ses-01_part-01_label-phase1,2020.1.3,MacIntel,60,,,,0,0,0,70,70,70,1,stimuli/m_blue.jpg,stimuli/Clothing.png,stimuli/Gamestoy & entertainment.png,stimuli/Vehicle.png,stimuli/Food.png,0,Vehicle,3,0,stimuli/objects/wheelchair.jpg,,,,,,,,,,,,,,,,
0,"[0,0,0,0,0,0,0,0,0,0,0,0,0,0,0,0,0,0,0,0,0,0,0,0,0,0,0,0,0,0,0,0,0,0,0,0,0,0,0,0,0,0,0,0,0,0,0,0,0]",,,,,,,,,,,,,999,,2021-12-18_14h12.25.278,MemLear_ses-01_part-01_label-phase1,2020.1.3,MacIntel,60,,,,0,0,0,71,71,71,1,stimuli/m_blue.jpg,stimuli/Gamestoy & entertainment.png,stimuli/Vehicle.png,stimuli/Clothing.png,stimuli/Food.png,1,Gamestoy & entertainment,1,1,stimuli/objects/toytractor01b.jpg,,,,,,,,,,,,,,,,
0,"[0,0,0,0,0,0,0,0,0,0,0,0,0,0,0,0,0,0,0,0,0,0,0,0,0,0,0,0,0,0,0,0,0,0,0,0,0,0,0,0,0,0,0,0,0,0,0,0,0,0]",,,,,,,,,,,,,999,,2021-12-18_14h12.25.278,MemLear_ses-01_part-01_label-phase1,2020.1.3,MacIntel,60,,,,0,0,0,72,72,72,1,stimuli/m_blue.jpg,stimuli/Gamestoy & entertainment.png,stimuli/Food.png,stimuli/Clothing.png,stimuli/Vehicle.png,1,Gamestoy & entertainment,1,1,stimuli/objects/playground.jpg,,,,,,,,,,,,,,,,
0,"[0,0,0,0,0,0,0,0,0,0,0,0,0,0,0,0,0,0,0,0,0,0,0,0,0,0,0,0,0,0,0,0,0,0,0,0,0,0,0,0,0,0,0,0,0,0,0,0,0,0,0]",,,,,,,,,,,,,999,,2021-12-18_14h12.25.278,MemLear_ses-01_part-01_label-phase1,2020.1.3,MacIntel,60,,,,0,0,0,73,73,73,1,stimuli/m_red.jpg,stimuli/Food.png,stimuli/Clothing.png,stimuli/Gamestoy & entertainment.png,stimuli/Vehicle.png,1,Food,1,1,stimuli/objects/frenchfries.jpg,,,,,,,,,,,,,,,,
0,"[0,0,0,0,0,0,0,0,0,0,0,0,0,0,0,0,0,0,0,0,0,0,0,0,0,0,0,0,0,0,0,0,0,0,0,0,0,0,0,0,0,0,0,0,0,0,0,0,0,0,0,0]",,,,,,,,,,,,,999,,2021-12-18_14h12.25.278,MemLear_ses-01_part-01_label-phase1,2020.1.3,MacIntel,60,,,,0,0,0,74,74,74,1,stimuli/m_red.jpg,stimuli/Food.png,stimuli/Vehicle.png,stimuli/Clothing.png,stimuli/Gamestoy & entertainment.png,1,Food,1,1,stimuli/objects/sausage.jpg,,,,,,,,,,,,,,,,
0,"[0,0,0,0,0,0,0,0,0,0,0,0,0,0,0,0,0,0,0,0,0,0,0,0,0,0,0,0,0,0,0,0,0,0,0,0,0,0,0,0,0,0,0,0,0,0,0,0,0,0,0,0,0]",,,,,,,,,,,,,999,,2021-12-18_14h12.25.278,MemLear_ses-01_part-01_label-phase1,2020.1.3,MacIntel,60,,,,0,0,0,75,75,75,1,stimuli/m_red.jpg,stimuli/Clothing.png,stimuli/Food.png,stimuli/Gamestoy & entertainment.png,stimuli/Vehicle.png,1,Food,2,1,stimuli/objects/sunflowerseeds.jpg,,,,,,,,,,,,,,,,
0,"[0,0,0,0,0,0,0,0,0,0,0,0,0,0,0,0,0,0,0,0,0,0,0,0,0,0,0,0,0,0,0,0,0,0,0,0,0,0,0,0,0,0,0,0,0,0,0,0,0,0,0,0,0,0]",,,,,,,,,,,,,999,,2021-12-18_14h12.25.278,MemLear_ses-01_part-01_label-phase1,2020.1.3,MacIntel,60,,,,0,0,0,76,76,76,1,stimuli/m_blue.jpg,stimuli/Food.png,stimuli/Vehicle.png,stimuli/Clothing.png,stimuli/Gamestoy & entertainment.png,0,Clothing,3,0,stimuli/objects/manshoe.jpg,,,,,,,,,,,,,,,,
0,"[0,0,0,0,0,0,0,0,0,0,0,0,0,0,0,0,0,0,0,0,0,0,0,0,0,0,0,0,0,0,0,0,0,0,0,0,0,0,0,0,0,0,0,0,0,0,0,0,0,0,0,0,0,0]",,,,,,,,,,,,,999,,2021-12-18_14h12.25.278,MemLear_ses-01_part-01_label-phase1,2020.1.3,MacIntel,60,,,,0,0,0,77,77,77,1,stimuli/m_red.jpg,stimuli/Vehicle.png,stimuli/Food.png,stimuli/Clothing.png,stimuli/Gamestoy & entertainment.png,1,Food,2,1,stimuli/objects/blueberry01.jpg,,,,,,,,,,,,,,,,
0,"[0,0,0,0,0,0,0,0,0,0,0,0,0,0,0,0,0,0,0,0,0,0,0,0,0,0,0,0,0,0,0,0,0,0,0,0,0,0,0,0,0,0,0,0,0,0,0,0,0,0,0,0,0,0,0]",,,,,,,,,,,,,999,,2021-12-18_14h12.25.278,MemLear_ses-01_part-01_label-phase1,2020.1.3,MacIntel,60,,,,0,0,0,78,78,78,1,stimuli/m_red.jpg,stimuli/Gamestoy & entertainment.png,stimuli/Clothing.png,stimuli/Food.png,stimuli/Vehicle.png,1,Food,3,1,stimuli/objects/broccoli01a.jpg,,,,,,,,,,,,,,,,
0,"[0,0,0,0,0,0,0,0,0,0,0,0,0,0,0,0,0,0,0,0,0,0,0,0,0,0,0,0,0,0,0,0,0,0,0,0,0,0,0,0,0,0,0,0,0,0,0,0,0,0,0,0,0,0,0,0]",,,,,,,,,,,,,999,,2021-12-18_14h12.25.278,MemLear_ses-01_part-01_label-phase1,2020.1.3,MacIntel,60,,,,0,0,0,79,79,79,1,stimuli/m_blue.jpg,stimuli/Gamestoy & entertainment.png,stimuli/Clothing.png,stimuli/Food.png,stimuli/Vehicle.png,0,Food,3,0,stimuli/objects/honeydewmelon.jpg,,,,,,,,,,,,,,,,
,,,,,,,,,,,,,,999,,2021-12-18_14h12.25.278,MemLear_ses-01_part-01_label-phase1,2020.1.3,MacIntel,60,,,,,,,,,,,,,,,,,,,,,n,941.5667,0,0,0,0,1,,,,,,,,,
,,,,,,,,,,,,,,999,,2021-12-18_14h12.25.278,MemLear_ses-01_part-01_label-phase1,2020.1.3,MacIntel,60,,,,,,,,,,,stimuli/m_orange.jpg,stimuli/Kitchen & utensil.png,stimuli/Outdoor activity & sport item.png,stimuli/Hand labour tool & accessory.png,stimuli/Electronic device & accessory.png,,Electronic device & accessory,4,1,stimuli/objects/spotlight.jpg,,,,,,,,3,0,0.5771,0,0,0,0,1,1
,,,,,,,,,,,,,,999,,2021-12-18_14h12.25.278,MemLear_ses-01_part-01_label-phase1,2020.1.3,MacIntel,60,,,,,,,,,,,stimuli/m_black.jpg,stimuli/Kitchen & utensil.png,stimuli/Outdoor activity & sport item.png,stimuli/Electronic device & accessory.png,stimuli/Hand labour tool & accessory.png,,Kitchen & utensil,1,1,stimuli/objects/peppermill02b.jpg,,,,,,,,,0,,0,1,1,1,1,0
,,,,,,,,,,,,,,999,,2021-12-18_14h12.25.278,MemLear_ses-01_part-01_label-phase1,2020.1.3,MacIntel,60,,,,,,,,,,,stimuli/m_black.jpg,stimuli/Hand labour tool & accessory.png,stimuli/Electronic device & accessory.png,stimuli/Outdoor activity & sport item.png,stimuli/Kitchen & utensil.png,,Kitchen & utensil,4,1,stimuli/objects/canister.jpg,,,,,,,,,0,,0,2,2,2,1,0
