"participant","Expra.Code","pract_resp.keys","pract_resp.corr","pract_resp.rt","myownaccuracyCORR","character","left_categ","centleft_categ","centright_categ","right_categ","trial_cond","corr_ans","corr_ans_num","type","img","task_response.keys","task_response.corr","task_response.rt","condition"
16,NA,1,1,1.5187,1,"stimuli/m_red.jpg","stimuli/Food.png","stimuli/Gamestoy & entertainment.png","stimuli/Vehicle.png","stimuli/Clothing.png",1,"Food",1,1,"stimuli/objects/chocolatecroissant.jpg",NA,NA,NA,NA
16,NA,2,0,1.2153,1,"stimuli/m_red.jpg","stimuli/Clothing.png","stimuli/Food.png","stimuli/Gamestoy & entertainment.png","stimuli/Vehicle.png",0,"Vehicle",4,0,"stimuli/objects/tricycle.jpg",NA,NA,NA,NA
16,NA,2,0,1.1873,1,"stimuli/m_blue.jpg","stimuli/Vehicle.png","stimuli/Clothing.png","stimuli/Gamestoy & entertainment.png","stimuli/Food.png",0,"Food",4,0,"stimuli/objects/cracker02.jpg",NA,NA,NA,NA
16,NA,4,1,0.9667,1,"stimuli/m_red.jpg","stimuli/Clothing.png","stimuli/Vehicle.png","stimuli/Gamestoy & entertainment.png","stimuli/Food.png",1,"Food",4,1,"stimuli/objects/hotdog.jpg",NA,NA,NA,NA
16,NA,3,1,0.9702,1,"stimuli/m_red.jpg","stimuli/Clothing.png","stimuli/Gamestoy & entertainment.png","stimuli/Food.png","stimuli/Vehicle.png",1,"Food",3,1,"stimuli/objects/kiwi03.jpg",NA,NA,NA,NA
16,NA,3,1,0.5698,1,"stimuli/m_red.jpg","stimuli/Vehicle.png","stimuli/Gamestoy & entertainment.png","stimuli/Food.png","stimuli/Clothing.png",1,"Food",3,1,"stimuli/objects/greenolive.jpg",NA,NA,NA,NA
16,NA,3,0,1.5555,0,"stimuli/m_blue.jpg","stimuli/Food.png","stimuli/Clothing.png","stimuli/Vehicle.png","stimuli/Gamestoy & entertainment.png",1,"Gamestoy & entertainment",4,1,"stimuli/objects/paperairplane.jpg",NA,NA,NA,NA
16,NA,2,1,2.4519,1,"stimuli/m_blue.jpg","stimuli/Vehicle.png","stimuli/Gamestoy & entertainment.png","stimuli/Food.png","stimuli/Clothing.png",1,"Gamestoy & entertainment",2,1,"stimuli/objects/toyanimal02.jpg",NA,NA,NA,NA
16,NA,4,1,0.9057,1,"stimuli/m_red.jpg","stimuli/Vehicle.png","stimuli/Clothing.png","stimuli/Gamestoy & entertainment.png","stimuli/Food.png",1,"Food",4,1,"stimuli/objects/casabamelon.jpg",NA,NA,NA,NA
16,NA,1,1,0.5632,1,"stimuli/m_blue.jpg","stimuli/Gamestoy & entertainment.png","stimuli/Clothing.png","stimuli/Vehicle.png","stimuli/Food.png",1,"Gamestoy & entertainment",1,1,"stimuli/objects/paddleball.jpg",NA,NA,NA,NA
16,NA,1,1,0.5288,1,"stimuli/m_blue.jpg","stimuli/Gamestoy & entertainment.png","stimuli/Clothing.png","stimuli/Food.png","stimuli/Vehicle.png",1,"Gamestoy & entertainment",1,1,"stimuli/objects/rockinghorse.jpg",NA,NA,NA,NA
16,NA,2,1,0.6385,1,"stimuli/m_red.jpg","stimuli/Vehicle.png","stimuli/Food.png","stimuli/Clothing.png","stimuli/Gamestoy & entertainment.png",1,"Food",2,1,"stimuli/objects/arugula.jpg",NA,NA,NA,NA
16,NA,NA,NA,NA,NA,"stimuli/m_black.jpg","stimuli/Hand labour tool & accessory.png","stimuli/Outdoor activity & sport item.png","stimuli/Kitchen & utensil.png","stimuli/Electronic device & accessory.png",NA,"Outdoor activity & sport item",2,1,"stimuli/objects/gymnasticring.jpg",2,1,1.0994,1
16,NA,NA,NA,NA,NA,"stimuli/m_black.jpg","stimuli/Outdoor activity & sport item.png","stimuli/Kitchen & utensil.png","stimuli/Electronic device & accessory.png","stimuli/Hand labour tool & accessory.png",NA,"Outdoor activity & sport item",1,1,"stimuli/objects/exercisebench.jpg",1,1,0.6742,1
16,NA,NA,NA,NA,NA,"stimuli/m_orange.jpg","stimuli/Outdoor activity & sport item.png","stimuli/Kitchen & utensil.png","stimuli/Hand labour tool & accessory.png","stimuli/Electronic device & accessory.png",NA,"Hand labour tool & accessory",3,1,"stimuli/objects/jumpercables.jpg",2,0,1.2377,0
16,NA,NA,NA,NA,NA,"stimuli/m_orange.jpg","stimuli/Electronic device & accessory.png","stimuli/Hand labour tool & accessory.png","stimuli/Kitchen & utensil.png","stimuli/Outdoor activity & sport item.png",NA,"Hand labour tool & accessory",2,1,"stimuli/objects/pipewrench.jpg",1,0,2.2505,0
16,NA,NA,NA,NA,NA,"stimuli/m_orange.jpg","stimuli/Kitchen & utensil.png","stimuli/Hand labour tool & accessory.png","stimuli/Outdoor activity & sport item.png","stimuli/Electronic device & accessory.png",NA,"Hand labour tool & accessory",2,1,"stimuli/objects/tape02a.jpg",2,1,1.769,0
16,NA,NA,NA,NA,NA,"stimuli/m_black.jpg","stimuli/Kitchen & utensil.png","stimuli/Hand labour tool & accessory.png","stimuli/Outdoor activity & sport item.png","stimuli/Electronic device & accessory.png",NA,"Outdoor activity & sport item",3,1,"stimuli/objects/swing.jpg",3,1,0.652,1
16,NA,NA,NA,NA,NA,"stimuli/m_black.jpg","stimuli/Hand labour tool & accessory.png","stimuli/Electronic device & accessory.png","stimuli/Kitchen & utensil.png","stimuli/Outdoor activity & sport item.png",NA,"Kitchen & utensil",3,0,"stimuli/objects/tray.jpg",4,0,1.2555,1
16,NA,NA,NA,NA,NA,"stimuli/m_orange.jpg","stimuli/Hand labour tool & accessory.png","stimuli/Outdoor activity & sport item.png","stimuli/Electronic device & accessory.png","stimuli/Kitchen & utensil.png",NA,"Hand labour tool & accessory",1,1,"stimuli/objects/wirestripper.jpg",1,1,1.5386,0
16,NA,NA,NA,NA,NA,"stimuli/m_orange.jpg","stimuli/Outdoor activity & sport item.png","stimuli/Electronic device & accessory.png","stimuli/Kitchen & utensil.png","stimuli/Hand labour tool & accessory.png",NA,"Hand labour tool & accessory",4,1,"stimuli/objects/carjack.jpg",4,1,2.667,0
16,NA,NA,NA,NA,NA,"stimuli/m_orange.jpg","stimuli/Electronic device & accessory.png","stimuli/Outdoor activity & sport item.png","stimuli/Hand labour tool & accessory.png","stimuli/Kitchen & utensil.png",NA,"Hand labour tool & accessory",3,1,"stimuli/objects/hedgeshears.jpg",3,1,2.3785,0
16,NA,NA,NA,NA,NA,"stimuli/m_orange.jpg","stimuli/Kitchen & utensil.png","stimuli/Outdoor activity & sport item.png","stimuli/Electronic device & accessory.png","stimuli/Hand labour tool & accessory.png",NA,"Hand labour tool & accessory",4,1,"stimuli/objects/jumpingjack.jpg",4,1,0.8397,0
16,NA,NA,NA,NA,NA,"stimuli/m_black.jpg","stimuli/Electronic device & accessory.png","stimuli/Kitchen & utensil.png","stimuli/Hand labour tool & accessory.png","stimuli/Outdoor activity & sport item.png",NA,"Outdoor activity & sport item",4,1,"stimuli/objects/beachumbrella01.jpg",4,1,1.789,1
16,NA,NA,NA,NA,NA,"stimuli/m_orange.jpg","stimuli/Kitchen & utensil.png","stimuli/Outdoor activity & sport item.png","stimuli/Electronic device & accessory.png","stimuli/Hand labour tool & accessory.png",NA,"Hand labour tool & accessory",4,1,"stimuli/objects/metalbrush.jpg",NA,0,NA,0
16,NA,NA,NA,NA,NA,"stimuli/m_orange.jpg","stimuli/Outdoor activity & sport item.png","stimuli/Electronic device & accessory.png","stimuli/Kitchen & utensil.png","stimuli/Hand labour tool & accessory.png",NA,"Hand labour tool & accessory",4,1,"stimuli/objects/gavel.jpg",4,1,2.3009,0
16,NA,NA,NA,NA,NA,"stimuli/m_black.jpg","stimuli/Outdoor activity & sport item.png","stimuli/Electronic device & accessory.png","stimuli/Hand labour tool & accessory.png","stimuli/Kitchen & utensil.png",NA,"Hand labour tool & accessory",3,0,"stimuli/objects/shopvac.jpg",1,0,1.0908,1
16,NA,NA,NA,NA,NA,"stimuli/m_orange.jpg","stimuli/Kitchen & utensil.png","stimuli/Outdoor activity & sport item.png","stimuli/Hand labour tool & accessory.png","stimuli/Electronic device & accessory.png",NA,"Hand labour tool & accessory",3,1,"stimuli/objects/file.jpg",2,0,0.9676,0
16,NA,NA,NA,NA,NA,"stimuli/m_orange.jpg","stimuli/Kitchen & utensil.png","stimuli/Electronic device & accessory.png","stimuli/Outdoor activity & sport item.png","stimuli/Hand labour tool & accessory.png",NA,"Hand labour tool & accessory",4,1,"stimuli/objects/gardenshears01a.jpg",4,1,0.9187,0
16,NA,NA,NA,NA,NA,"stimuli/m_black.jpg","stimuli/Kitchen & utensil.png","stimuli/Hand labour tool & accessory.png","stimuli/Electronic device & accessory.png","stimuli/Outdoor activity & sport item.png",NA,"Electronic device & accessory",3,0,"stimuli/objects/avcable.jpg",2,0,1.9385,1
16,NA,NA,NA,NA,NA,"stimuli/m_orange.jpg","stimuli/Kitchen & utensil.png","stimuli/Electronic device & accessory.png","stimuli/Hand labour tool & accessory.png","stimuli/Outdoor activity & sport item.png",NA,"Hand labour tool & accessory",3,1,"stimuli/objects/bowrake.jpg",4,0,0.7344,0
16,NA,NA,NA,NA,NA,"stimuli/m_black.jpg","stimuli/Kitchen & utensil.png","stimuli/Hand labour tool & accessory.png","stimuli/Outdoor activity & sport item.png","stimuli/Electronic device & accessory.png",NA,"Outdoor activity & sport item",3,1,"stimuli/objects/bikepump01.jpg",3,1,0.9684,1
16,NA,NA,NA,NA,NA,"stimuli/m_black.jpg","stimuli/Outdoor activity & sport item.png","stimuli/Hand labour tool & accessory.png","stimuli/Kitchen & utensil.png","stimuli/Electronic device & accessory.png",NA,"Outdoor activity & sport item",1,1,"stimuli/objects/golfball.jpg",1,1,2.7294,1
16,NA,NA,NA,NA,NA,"stimuli/m_black.jpg","stimuli/Kitchen & utensil.png","stimuli/Outdoor activity & sport item.png","stimuli/Electronic device & accessory.png","stimuli/Hand labour tool & accessory.png",NA,"Hand labour tool & accessory",4,0,"stimuli/objects/caulking.jpg",2,0,0.8985,1
16,NA,NA,NA,NA,NA,"stimuli/m_orange.jpg","stimuli/Electronic device & accessory.png","stimuli/Kitchen & utensil.png","stimuli/Outdoor activity & sport item.png","stimuli/Hand labour tool & accessory.png",NA,"Hand labour tool & accessory",4,1,"stimuli/objects/staplegun.jpg",4,1,0.792,0
16,NA,NA,NA,NA,NA,"stimuli/m_black.jpg","stimuli/Electronic device & accessory.png","stimuli/Hand labour tool & accessory.png","stimuli/Kitchen & utensil.png","stimuli/Outdoor activity & sport item.png",NA,"Outdoor activity & sport item",4,1,"stimuli/objects/tennisball01b.jpg",4,1,0.9114,1
16,NA,NA,NA,NA,NA,"stimuli/m_black.jpg","stimuli/Kitchen & utensil.png","stimuli/Electronic device & accessory.png","stimuli/Outdoor activity & sport item.png","stimuli/Hand labour tool & accessory.png",NA,"Outdoor activity & sport item",3,1,"stimuli/objects/umbrella04.jpg",3,1,1.1419,1
16,NA,NA,NA,NA,NA,"stimuli/m_orange.jpg","stimuli/Hand labour tool & accessory.png","stimuli/Electronic device & accessory.png","stimuli/Outdoor activity & sport item.png","stimuli/Kitchen & utensil.png",NA,"Hand labour tool & accessory",1,1,"stimuli/objects/flashlight02b.jpg",1,1,1.4088,0
16,NA,NA,NA,NA,NA,"stimuli/m_orange.jpg","stimuli/Kitchen & utensil.png","stimuli/Hand labour tool & accessory.png","stimuli/Outdoor activity & sport item.png","stimuli/Electronic device & accessory.png",NA,"Hand labour tool & accessory",2,1,"stimuli/objects/lock03a.jpg",2,1,0.9665,0
16,NA,NA,NA,NA,NA,"stimuli/m_orange.jpg","stimuli/Electronic device & accessory.png","stimuli/Outdoor activity & sport item.png","stimuli/Kitchen & utensil.png","stimuli/Hand labour tool & accessory.png",NA,"Hand labour tool & accessory",4,1,"stimuli/objects/sledgehammer.jpg",4,1,1.1877,0
16,NA,NA,NA,NA,NA,"stimuli/m_black.jpg","stimuli/Electronic device & accessory.png","stimuli/Outdoor activity & sport item.png","stimuli/Kitchen & utensil.png","stimuli/Hand labour tool & accessory.png",NA,"Outdoor activity & sport item",2,1,"stimuli/objects/binoculars01b.jpg",2,1,0.7362,1
16,NA,NA,NA,NA,NA,"stimuli/m_black.jpg","stimuli/Outdoor activity & sport item.png","stimuli/Kitchen & utensil.png","stimuli/Hand labour tool & accessory.png","stimuli/Electronic device & accessory.png",NA,"Outdoor activity & sport item",1,1,"stimuli/objects/weight01.jpg",1,1,1.1684,1
16,NA,NA,NA,NA,NA,"stimuli/m_black.jpg","stimuli/Kitchen & utensil.png","stimuli/Hand labour tool & accessory.png","stimuli/Outdoor activity & sport item.png","stimuli/Electronic device & accessory.png",NA,"Outdoor activity & sport item",3,1,"stimuli/objects/bikelock.jpg",3,1,0.9681,1
16,NA,NA,NA,NA,NA,"stimuli/m_orange.jpg","stimuli/Outdoor activity & sport item.png","stimuli/Kitchen & utensil.png","stimuli/Hand labour tool & accessory.png","stimuli/Electronic device & accessory.png",NA,"Outdoor activity & sport item",1,0,"stimuli/objects/frisbee.jpg",3,0,1.5064,0
16,NA,NA,NA,NA,NA,"stimuli/m_black.jpg","stimuli/Electronic device & accessory.png","stimuli/Hand labour tool & accessory.png","stimuli/Kitchen & utensil.png","stimuli/Outdoor activity & sport item.png",NA,"Electronic device & accessory",1,0,"stimuli/objects/monitor.jpg",4,0,1.1564,1
16,NA,NA,NA,NA,NA,"stimuli/m_orange.jpg","stimuli/Hand labour tool & accessory.png","stimuli/Kitchen & utensil.png","stimuli/Outdoor activity & sport item.png","stimuli/Electronic device & accessory.png",NA,"Hand labour tool & accessory",1,1,"stimuli/objects/loppingshears.jpg",1,1,0.811,0
16,NA,NA,NA,NA,NA,"stimuli/m_black.jpg","stimuli/Outdoor activity & sport item.png","stimuli/Kitchen & utensil.png","stimuli/Hand labour tool & accessory.png","stimuli/Electronic device & accessory.png",NA,"Outdoor activity & sport item",1,1,"stimuli/objects/hockeygoalieglove.jpg",1,1,1.4392,1
16,NA,NA,NA,NA,NA,"stimuli/m_black.jpg","stimuli/Hand labour tool & accessory.png","stimuli/Electronic device & accessory.png","stimuli/Outdoor activity & sport item.png","stimuli/Kitchen & utensil.png",NA,"Outdoor activity & sport item",3,1,"stimuli/objects/sportbag.jpg",3,1,0.9342,1
16,NA,NA,NA,NA,NA,"stimuli/m_orange.jpg","stimuli/Hand labour tool & accessory.png","stimuli/Electronic device & accessory.png","stimuli/Kitchen & utensil.png","stimuli/Outdoor activity & sport item.png",NA,"Outdoor activity & sport item",4,0,"stimuli/objects/anchor.jpg",1,0,0.6774,0
16,NA,NA,NA,NA,NA,"stimuli/m_orange.jpg","stimuli/Electronic device & accessory.png","stimuli/Kitchen & utensil.png","stimuli/Hand labour tool & accessory.png","stimuli/Outdoor activity & sport item.png",NA,"Hand labour tool & accessory",3,1,"stimuli/objects/solderingwire.jpg",3,1,0.9269,0
16,NA,NA,NA,NA,NA,"stimuli/m_black.jpg","stimuli/Outdoor activity & sport item.png","stimuli/Kitchen & utensil.png","stimuli/Hand labour tool & accessory.png","stimuli/Electronic device & accessory.png",NA,"Kitchen & utensil",2,0,"stimuli/objects/blender.jpg",1,0,0.6337,1
16,NA,NA,NA,NA,NA,"stimuli/m_orange.jpg","stimuli/Kitchen & utensil.png","stimuli/Electronic device & accessory.png","stimuli/Hand labour tool & accessory.png","stimuli/Outdoor activity & sport item.png",NA,"Hand labour tool & accessory",3,1,"stimuli/objects/gluetube.jpg",3,1,0.8032,0
16,NA,NA,NA,NA,NA,"stimuli/m_black.jpg","stimuli/Electronic device & accessory.png","stimuli/Hand labour tool & accessory.png","stimuli/Kitchen & utensil.png","stimuli/Outdoor activity & sport item.png",NA,"Electronic device & accessory",1,0,"stimuli/objects/alarmsystem.jpg",4,0,2.7707,1
16,NA,NA,NA,NA,NA,"stimuli/m_black.jpg","stimuli/Electronic device & accessory.png","stimuli/Outdoor activity & sport item.png","stimuli/Hand labour tool & accessory.png","stimuli/Kitchen & utensil.png",NA,"Outdoor activity & sport item",2,1,"stimuli/objects/punchingball.jpg",2,1,1.0427,1
16,NA,NA,NA,NA,NA,"stimuli/m_orange.jpg","stimuli/Electronic device & accessory.png","stimuli/Outdoor activity & sport item.png","stimuli/Hand labour tool & accessory.png","stimuli/Kitchen & utensil.png",NA,"Hand labour tool & accessory",3,1,"stimuli/objects/tablesaw.jpg",3,1,0.9125,0
16,NA,NA,NA,NA,NA,"stimuli/m_orange.jpg","stimuli/Outdoor activity & sport item.png","stimuli/Electronic device & accessory.png","stimuli/Hand labour tool & accessory.png","stimuli/Kitchen & utensil.png",NA,"Kitchen & utensil",4,0,"stimuli/objects/bowl02a.jpg",3,0,1.8752,0
16,NA,NA,NA,NA,NA,"stimuli/m_orange.jpg","stimuli/Electronic device & accessory.png","stimuli/Hand labour tool & accessory.png","stimuli/Outdoor activity & sport item.png","stimuli/Kitchen & utensil.png",NA,"Outdoor activity & sport item",3,0,"stimuli/objects/boogieboard.jpg",2,0,1.4853,0
16,NA,NA,NA,NA,NA,"stimuli/m_black.jpg","stimuli/Electronic device & accessory.png","stimuli/Hand labour tool & accessory.png","stimuli/Outdoor activity & sport item.png","stimuli/Kitchen & utensil.png",NA,"Outdoor activity & sport item",3,1,"stimuli/objects/exercisemachine.jpg",3,1,0.8618,1
16,NA,NA,NA,NA,NA,"stimuli/m_black.jpg","stimuli/Hand labour tool & accessory.png","stimuli/Outdoor activity & sport item.png","stimuli/Electronic device & accessory.png","stimuli/Kitchen & utensil.png",NA,"Outdoor activity & sport item",2,1,"stimuli/objects/charcoalbarbecue.jpg",2,1,0.8557,1
16,NA,NA,NA,NA,NA,"stimuli/m_orange.jpg","stimuli/Hand labour tool & accessory.png","stimuli/Outdoor activity & sport item.png","stimuli/Kitchen & utensil.png","stimuli/Electronic device & accessory.png",NA,"Hand labour tool & accessory",1,1,"stimuli/objects/pliers02b.jpg",1,1,1.6799,0
16,NA,NA,NA,NA,NA,"stimuli/m_black.jpg","stimuli/Kitchen & utensil.png","stimuli/Hand labour tool & accessory.png","stimuli/Electronic device & accessory.png","stimuli/Outdoor activity & sport item.png",NA,"Hand labour tool & accessory",2,0,"stimuli/objects/painttray.jpg",4,0,1.2532,1
16,NA,NA,NA,NA,NA,"stimuli/m_orange.jpg","stimuli/Hand labour tool & accessory.png","stimuli/Electronic device & accessory.png","stimuli/Kitchen & utensil.png","stimuli/Outdoor activity & sport item.png",NA,"Hand labour tool & accessory",1,1,"stimuli/objects/measuringtape01.jpg",1,1,0.4875,0
16,NA,NA,NA,NA,NA,"stimuli/m_orange.jpg","stimuli/Hand labour tool & accessory.png","stimuli/Kitchen & utensil.png","stimuli/Outdoor activity & sport item.png","stimuli/Electronic device & accessory.png",NA,"Hand labour tool & accessory",1,1,"stimuli/objects/hammer01.jpg",1,1,0.6012,0
16,NA,NA,NA,NA,NA,"stimuli/m_orange.jpg","stimuli/Outdoor activity & sport item.png","stimuli/Hand labour tool & accessory.png","stimuli/Electronic device & accessory.png","stimuli/Kitchen & utensil.png",NA,"Outdoor activity & sport item",1,0,"stimuli/objects/bikehelmet.jpg",2,0,3.169,0
16,NA,NA,NA,NA,NA,"stimuli/m_orange.jpg","stimuli/Kitchen & utensil.png","stimuli/Hand labour tool & accessory.png","stimuli/Electronic device & accessory.png","stimuli/Outdoor activity & sport item.png",NA,"Electronic device & accessory",3,0,"stimuli/objects/carlighter02.jpg",2,0,0.7807,0
16,NA,NA,NA,NA,NA,"stimuli/m_black.jpg","stimuli/Kitchen & utensil.png","stimuli/Electronic device & accessory.png","stimuli/Hand labour tool & accessory.png","stimuli/Outdoor activity & sport item.png",NA,"Outdoor activity & sport item",4,1,"stimuli/objects/basketballhoop01.jpg",4,1,0.9685,1
16,NA,NA,NA,NA,NA,"stimuli/m_black.jpg","stimuli/Outdoor activity & sport item.png","stimuli/Hand labour tool & accessory.png","stimuli/Kitchen & utensil.png","stimuli/Electronic device & accessory.png",NA,"Kitchen & utensil",3,0,"stimuli/objects/fonduefork01.jpg",1,0,0.9516,1
16,NA,NA,NA,NA,NA,"stimuli/m_black.jpg","stimuli/Kitchen & utensil.png","stimuli/Electronic device & accessory.png","stimuli/Outdoor activity & sport item.png","stimuli/Hand labour tool & accessory.png",NA,"Outdoor activity & sport item",3,1,"stimuli/objects/snowboard.jpg",3,1,0.6019,1
16,NA,NA,NA,NA,NA,"stimuli/m_black.jpg","stimuli/Hand labour tool & accessory.png","stimuli/Electronic device & accessory.png","stimuli/Kitchen & utensil.png","stimuli/Outdoor activity & sport item.png",NA,"Hand labour tool & accessory",1,0,"stimuli/objects/pickaxe02.jpg",4,0,0.9871,1
16,NA,NA,NA,NA,NA,"stimuli/m_black.jpg","stimuli/Electronic device & accessory.png","stimuli/Outdoor activity & sport item.png","stimuli/Kitchen & utensil.png","stimuli/Hand labour tool & accessory.png",NA,"Electronic device & accessory",1,0,"stimuli/objects/cellphone.jpg",2,0,0.7024,1
16,NA,NA,NA,NA,NA,"stimuli/m_black.jpg","stimuli/Hand labour tool & accessory.png","stimuli/Outdoor activity & sport item.png","stimuli/Electronic device & accessory.png","stimuli/Kitchen & utensil.png",NA,"Outdoor activity & sport item",2,1,"stimuli/objects/bowlingball.jpg",2,1,0.6448,1
16,NA,NA,NA,NA,NA,"stimuli/m_black.jpg","stimuli/Outdoor activity & sport item.png","stimuli/Hand labour tool & accessory.png","stimuli/Electronic device & accessory.png","stimuli/Kitchen & utensil.png",NA,"Outdoor activity & sport item",1,1,"stimuli/objects/podium.jpg",1,1,1.0401,1
16,NA,NA,NA,NA,NA,"stimuli/m_orange.jpg","stimuli/Outdoor activity & sport item.png","stimuli/Electronic device & accessory.png","stimuli/Hand labour tool & accessory.png","stimuli/Kitchen & utensil.png",NA,"Hand labour tool & accessory",3,1,"stimuli/objects/cheeseknife01.jpg",3,1,0.9281,0
16,NA,NA,NA,NA,NA,"stimuli/m_black.jpg","stimuli/Electronic device & accessory.png","stimuli/Kitchen & utensil.png","stimuli/Hand labour tool & accessory.png","stimuli/Outdoor activity & sport item.png",NA,"Outdoor activity & sport item",4,1,"stimuli/objects/magneticcompass.jpg",4,1,0.8936,1
16,NA,NA,NA,NA,NA,"stimuli/m_black.jpg","stimuli/Electronic device & accessory.png","stimuli/Hand labour tool & accessory.png","stimuli/Outdoor activity & sport item.png","stimuli/Kitchen & utensil.png",NA,"Outdoor activity & sport item",3,1,"stimuli/objects/bikewheel.jpg",3,1,1.031,1
16,NA,NA,NA,NA,NA,"stimuli/m_black.jpg","stimuli/Kitchen & utensil.png","stimuli/Outdoor activity & sport item.png","stimuli/Hand labour tool & accessory.png","stimuli/Electronic device & accessory.png",NA,"Outdoor activity & sport item",2,1,"stimuli/objects/reflector.jpg",2,1,0.9126,1
16,NA,NA,NA,NA,NA,"stimuli/m_black.jpg","stimuli/Hand labour tool & accessory.png","stimuli/Outdoor activity & sport item.png","stimuli/Kitchen & utensil.png","stimuli/Electronic device & accessory.png",NA,"Electronic device & accessory",4,0,"stimuli/objects/scanner.jpg",2,0,0.5852,1
16,NA,NA,NA,NA,NA,"stimuli/m_black.jpg","stimuli/Kitchen & utensil.png","stimuli/Outdoor activity & sport item.png","stimuli/Electronic device & accessory.png","stimuli/Hand labour tool & accessory.png",NA,"Outdoor activity & sport item",2,1,"stimuli/objects/swimgoggles.jpg",2,1,0.6693,1
16,NA,NA,NA,NA,NA,"stimuli/m_black.jpg","stimuli/Hand labour tool & accessory.png","stimuli/Kitchen & utensil.png","stimuli/Outdoor activity & sport item.png","stimuli/Electronic device & accessory.png",NA,"Outdoor activity & sport item",3,1,"stimuli/objects/tennisracket.jpg",3,1,0.6912,1
16,NA,NA,NA,NA,NA,"stimuli/m_black.jpg","stimuli/Outdoor activity & sport item.png","stimuli/Electronic device & accessory.png","stimuli/Kitchen & utensil.png","stimuli/Hand labour tool & accessory.png",NA,"Outdoor activity & sport item",1,1,"stimuli/objects/toyhockeystick01.jpg",1,1,0.8611,1
16,NA,NA,NA,NA,NA,"stimuli/m_orange.jpg","stimuli/Hand labour tool & accessory.png","stimuli/Electronic device & accessory.png","stimuli/Outdoor activity & sport item.png","stimuli/Kitchen & utensil.png",NA,"Kitchen & utensil",4,0,"stimuli/objects/styrofoamcup.jpg",1,0,0.5477,0
16,NA,NA,NA,NA,NA,"stimuli/m_black.jpg","stimuli/Electronic device & accessory.png","stimuli/Kitchen & utensil.png","stimuli/Outdoor activity & sport item.png","stimuli/Hand labour tool & accessory.png",NA,"Outdoor activity & sport item",3,1,"stimuli/objects/volleyball.jpg",3,1,1.2012,1
16,NA,NA,NA,NA,NA,"stimuli/m_black.jpg","stimuli/Electronic device & accessory.png","stimuli/Hand labour tool & accessory.png","stimuli/Outdoor activity & sport item.png","stimuli/Kitchen & utensil.png",NA,"Kitchen & utensil",4,0,"stimuli/objects/oven.jpg",3,0,0.5851,1
16,NA,NA,NA,NA,NA,"stimuli/m_orange.jpg","stimuli/Outdoor activity & sport item.png","stimuli/Hand labour tool & accessory.png","stimuli/Kitchen & utensil.png","stimuli/Electronic device & accessory.png",NA,"Outdoor activity & sport item",1,0,"stimuli/objects/snowshoe.jpg",2,0,0.6705,0
16,NA,NA,NA,NA,NA,"stimuli/m_black.jpg","stimuli/Outdoor activity & sport item.png","stimuli/Electronic device & accessory.png","stimuli/Hand labour tool & accessory.png","stimuli/Kitchen & utensil.png",NA,"Outdoor activity & sport item",1,1,"stimuli/objects/skipole.jpg",1,1,0.9311,1
16,NA,NA,NA,NA,NA,"stimuli/m_orange.jpg","stimuli/Electronic device & accessory.png","stimuli/Kitchen & utensil.png","stimuli/Hand labour tool & accessory.png","stimuli/Outdoor activity & sport item.png",NA,"Hand labour tool & accessory",3,1,"stimuli/objects/puttyknife.jpg",3,1,0.94,0
16,NA,NA,NA,NA,NA,"stimuli/m_orange.jpg","stimuli/Outdoor activity & sport item.png","stimuli/Kitchen & utensil.png","stimuli/Hand labour tool & accessory.png","stimuli/Electronic device & accessory.png",NA,"Hand labour tool & accessory",3,1,"stimuli/objects/bungeecord02.jpg",1,0,0.7569,0
16,NA,NA,NA,NA,NA,"stimuli/m_orange.jpg","stimuli/Electronic device & accessory.png","stimuli/Kitchen & utensil.png","stimuli/Hand labour tool & accessory.png","stimuli/Outdoor activity & sport item.png",NA,"Hand labour tool & accessory",3,1,"stimuli/objects/jackhammer.jpg",3,1,0.485,0
16,NA,NA,NA,NA,NA,"stimuli/m_black.jpg","stimuli/Kitchen & utensil.png","stimuli/Outdoor activity & sport item.png","stimuli/Hand labour tool & accessory.png","stimuli/Electronic device & accessory.png",NA,"Outdoor activity & sport item",2,1,"stimuli/objects/kneepad01c.jpg",2,1,1.0915,1
16,NA,NA,NA,NA,NA,"stimuli/m_black.jpg","stimuli/Hand labour tool & accessory.png","stimuli/Kitchen & utensil.png","stimuli/Outdoor activity & sport item.png","stimuli/Electronic device & accessory.png",NA,"Outdoor activity & sport item",3,1,"stimuli/objects/golfbag.jpg",3,1,0.8179,1
16,NA,NA,NA,NA,NA,"stimuli/m_black.jpg","stimuli/Outdoor activity & sport item.png","stimuli/Electronic device & accessory.png","stimuli/Hand labour tool & accessory.png","stimuli/Kitchen & utensil.png",NA,"Outdoor activity & sport item",1,1,"stimuli/objects/birdie.jpg",1,1,0.956,1
16,NA,NA,NA,NA,NA,"stimuli/m_orange.jpg","stimuli/Hand labour tool & accessory.png","stimuli/Outdoor activity & sport item.png","stimuli/Kitchen & utensil.png","stimuli/Electronic device & accessory.png",NA,"Electronic device & accessory",4,0,"stimuli/objects/chandelier.jpg",1,0,1.1525,0
16,NA,NA,NA,NA,NA,"stimuli/m_orange.jpg","stimuli/Hand labour tool & accessory.png","stimuli/Outdoor activity & sport item.png","stimuli/Electronic device & accessory.png","stimuli/Kitchen & utensil.png",NA,"Hand labour tool & accessory",1,1,"stimuli/objects/drillbit03a.jpg",1,1,2.1212,0
16,NA,NA,NA,NA,NA,"stimuli/m_black.jpg","stimuli/Hand labour tool & accessory.png","stimuli/Electronic device & accessory.png","stimuli/Outdoor activity & sport item.png","stimuli/Kitchen & utensil.png",NA,"Hand labour tool & accessory",1,0,"stimuli/objects/solderingiron.jpg",3,0,2.411,1
16,NA,NA,NA,NA,NA,"stimuli/m_black.jpg","stimuli/Hand labour tool & accessory.png","stimuli/Electronic device & accessory.png","stimuli/Kitchen & utensil.png","stimuli/Outdoor activity & sport item.png",NA,"Outdoor activity & sport item",4,1,"stimuli/objects/lifesaver.jpg",4,1,2.62,1
16,NA,NA,NA,NA,NA,"stimuli/m_black.jpg","stimuli/Hand labour tool & accessory.png","stimuli/Kitchen & utensil.png","stimuli/Electronic device & accessory.png","stimuli/Outdoor activity & sport item.png",NA,"Outdoor activity & sport item",4,1,"stimuli/objects/propanetank01.jpg",4,1,0.6753,1
16,NA,NA,NA,NA,NA,"stimuli/m_orange.jpg","stimuli/Hand labour tool & accessory.png","stimuli/Kitchen & utensil.png","stimuli/Outdoor activity & sport item.png","stimuli/Electronic device & accessory.png",NA,"Hand labour tool & accessory",1,1,"stimuli/objects/cuttingpliers02.jpg",1,1,0.5995,0
16,NA,NA,NA,NA,NA,"stimuli/m_black.jpg","stimuli/Kitchen & utensil.png","stimuli/Outdoor activity & sport item.png","stimuli/Electronic device & accessory.png","stimuli/Hand labour tool & accessory.png",NA,"Outdoor activity & sport item",2,1,"stimuli/objects/skigoggles01.jpg",2,1,0.8225,1
16,NA,NA,NA,NA,NA,"stimuli/m_orange.jpg","stimuli/Hand labour tool & accessory.png","stimuli/Kitchen & utensil.png","stimuli/Electronic device & accessory.png","stimuli/Outdoor activity & sport item.png",NA,"Electronic device & accessory",3,0,"stimuli/objects/securitycamera.jpg",1,0,0.7328,0
16,NA,NA,NA,NA,NA,"stimuli/m_orange.jpg","stimuli/Electronic device & accessory.png","stimuli/Hand labour tool & accessory.png","stimuli/Outdoor activity & sport item.png","stimuli/Kitchen & utensil.png",NA,"Hand labour tool & accessory",2,1,"stimuli/objects/pylon01.jpg",2,1,0.8504,0
16,NA,NA,NA,NA,NA,"stimuli/m_orange.jpg","stimuli/Hand labour tool & accessory.png","stimuli/Electronic device & accessory.png","stimuli/Kitchen & utensil.png","stimuli/Outdoor activity & sport item.png",NA,"Kitchen & utensil",3,0,"stimuli/objects/pot01.jpg",1,0,0.7251,0
16,NA,NA,NA,NA,NA,"stimuli/m_black.jpg","stimuli/Electronic device & accessory.png","stimuli/Kitchen & utensil.png","stimuli/Hand labour tool & accessory.png","stimuli/Outdoor activity & sport item.png",NA,"Outdoor activity & sport item",4,1,"stimuli/objects/surfboard.jpg",4,1,0.5979,1
16,NA,NA,NA,NA,NA,"stimuli/m_black.jpg","stimuli/Electronic device & accessory.png","stimuli/Outdoor activity & sport item.png","stimuli/Hand labour tool & accessory.png","stimuli/Kitchen & utensil.png",NA,"Outdoor activity & sport item",2,1,"stimuli/objects/cooler01.jpg",2,1,0.8347,1
16,NA,NA,NA,NA,NA,"stimuli/m_orange.jpg","stimuli/Outdoor activity & sport item.png","stimuli/Hand labour tool & accessory.png","stimuli/Kitchen & utensil.png","stimuli/Electronic device & accessory.png",NA,"Hand labour tool & accessory",2,1,"stimuli/objects/adjustablewrench01b.jpg",2,1,1.8836,0
16,NA,NA,NA,NA,NA,"stimuli/m_orange.jpg","stimuli/Outdoor activity & sport item.png","stimuli/Kitchen & utensil.png","stimuli/Electronic device & accessory.png","stimuli/Hand labour tool & accessory.png",NA,"Hand labour tool & accessory",4,1,"stimuli/objects/cclamp.jpg",4,1,0.9219,0
16,NA,NA,NA,NA,NA,"stimuli/m_orange.jpg","stimuli/Electronic device & accessory.png","stimuli/Hand labour tool & accessory.png","stimuli/Kitchen & utensil.png","stimuli/Outdoor activity & sport item.png",NA,"Electronic device & accessory",1,0,"stimuli/objects/videocamera01a.jpg",2,0,1.0657,0
16,NA,NA,NA,NA,NA,"stimuli/m_orange.jpg","stimuli/Electronic device & accessory.png","stimuli/Outdoor activity & sport item.png","stimuli/Kitchen & utensil.png","stimuli/Hand labour tool & accessory.png",NA,"Electronic device & accessory",1,0,"stimuli/objects/walkman.jpg",4,0,1.0228,0
16,NA,NA,NA,NA,NA,"stimuli/m_orange.jpg","stimuli/Kitchen & utensil.png","stimuli/Electronic device & accessory.png","stimuli/Outdoor activity & sport item.png","stimuli/Hand labour tool & accessory.png",NA,"Hand labour tool & accessory",4,1,"stimuli/objects/wheel01.jpg",4,1,1.1054,0
16,NA,NA,NA,NA,NA,"stimuli/m_black.jpg","stimuli/Outdoor activity & sport item.png","stimuli/Hand labour tool & accessory.png","stimuli/Electronic device & accessory.png","stimuli/Kitchen & utensil.png",NA,"Kitchen & utensil",4,0,"stimuli/objects/cleaver01.jpg",1,0,1.7363,1
16,NA,NA,NA,NA,NA,"stimuli/m_orange.jpg","stimuli/Electronic device & accessory.png","stimuli/Hand labour tool & accessory.png","stimuli/Kitchen & utensil.png","stimuli/Outdoor activity & sport item.png",NA,"Electronic device & accessory",1,0,"stimuli/objects/spotlight.jpg",2,0,0.9723,0
16,NA,NA,NA,NA,NA,"stimuli/m_black.jpg","stimuli/Kitchen & utensil.png","stimuli/Electronic device & accessory.png","stimuli/Hand labour tool & accessory.png","stimuli/Outdoor activity & sport item.png",NA,"Outdoor activity & sport item",4,1,"stimuli/objects/badmintonracket.jpg",4,1,0.6512,1
16,NA,NA,NA,NA,NA,"stimuli/m_orange.jpg","stimuli/Kitchen & utensil.png","stimuli/Electronic device & accessory.png","stimuli/Outdoor activity & sport item.png","stimuli/Hand labour tool & accessory.png",NA,"Hand labour tool & accessory",4,1,"stimuli/objects/bucket02.jpg",4,1,1.3232,0
16,NA,NA,NA,NA,NA,"stimuli/m_orange.jpg","stimuli/Kitchen & utensil.png","stimuli/Outdoor activity & sport item.png","stimuli/Hand labour tool & accessory.png","stimuli/Electronic device & accessory.png",NA,"Hand labour tool & accessory",3,1,"stimuli/objects/stepladder.jpg",3,1,0.7111,0
16,NA,NA,NA,NA,NA,"stimuli/m_black.jpg","stimuli/Outdoor activity & sport item.png","stimuli/Kitchen & utensil.png","stimuli/Electronic device & accessory.png","stimuli/Hand labour tool & accessory.png",NA,"Kitchen & utensil",2,0,"stimuli/objects/kitchenscale01a.jpg",1,0,0.7734,1
16,NA,NA,NA,NA,NA,"stimuli/m_orange.jpg","stimuli/Hand labour tool & accessory.png","stimuli/Outdoor activity & sport item.png","stimuli/Electronic device & accessory.png","stimuli/Kitchen & utensil.png",NA,"Hand labour tool & accessory",1,1,"stimuli/objects/metalscissors.jpg",1,1,0.6832,0
16,NA,NA,NA,NA,NA,"stimuli/m_black.jpg","stimuli/Hand labour tool & accessory.png","stimuli/Kitchen & utensil.png","stimuli/Electronic device & accessory.png","stimuli/Outdoor activity & sport item.png",NA,"Electronic device & accessory",3,0,"stimuli/objects/coffeemachine.jpg",4,0,1.1046,1
16,NA,NA,NA,NA,NA,"stimuli/m_orange.jpg","stimuli/Electronic device & accessory.png","stimuli/Hand labour tool & accessory.png","stimuli/Outdoor activity & sport item.png","stimuli/Kitchen & utensil.png",NA,"Hand labour tool & accessory",2,1,"stimuli/objects/mitresaw.jpg",2,1,0.7686,0
16,NA,NA,NA,NA,NA,"stimuli/m_orange.jpg","stimuli/Hand labour tool & accessory.png","stimuli/Electronic device & accessory.png","stimuli/Outdoor activity & sport item.png","stimuli/Kitchen & utensil.png",NA,"Kitchen & utensil",4,0,"stimuli/objects/grater01a.jpg",1,0,0.6026,0
16,NA,NA,NA,NA,NA,"stimuli/m_orange.jpg","stimuli/Kitchen & utensil.png","stimuli/Electronic device & accessory.png","stimuli/Hand labour tool & accessory.png","stimuli/Outdoor activity & sport item.png",NA,"Hand labour tool & accessory",3,1,"stimuli/objects/leafblower01.jpg",3,1,1.1849,0
16,NA,NA,NA,NA,NA,"stimuli/m_black.jpg","stimuli/Hand labour tool & accessory.png","stimuli/Kitchen & utensil.png","stimuli/Outdoor activity & sport item.png","stimuli/Electronic device & accessory.png",NA,"Outdoor activity & sport item",3,1,"stimuli/objects/footballhelmet.jpg",3,1,1.0852,1
16,NA,NA,NA,NA,NA,"stimuli/m_black.jpg","stimuli/Hand labour tool & accessory.png","stimuli/Outdoor activity & sport item.png","stimuli/Electronic device & accessory.png","stimuli/Kitchen & utensil.png",NA,"Outdoor activity & sport item",2,1,"stimuli/objects/baseball01a.jpg",2,1,0.9045,1
16,NA,NA,NA,NA,NA,"stimuli/m_black.jpg","stimuli/Kitchen & utensil.png","stimuli/Electronic device & accessory.png","stimuli/Outdoor activity & sport item.png","stimuli/Hand labour tool & accessory.png",NA,"Outdoor activity & sport item",3,1,"stimuli/objects/bicycle.jpg",3,1,0.6993,1
16,NA,NA,NA,NA,NA,"stimuli/m_black.jpg","stimuli/Hand labour tool & accessory.png","stimuli/Electronic device & accessory.png","stimuli/Outdoor activity & sport item.png","stimuli/Kitchen & utensil.png",NA,"Hand labour tool & accessory",1,0,"stimuli/objects/mallet01b.jpg",3,0,0.4512,1
16,NA,NA,NA,NA,NA,"stimuli/m_black.jpg","stimuli/Kitchen & utensil.png","stimuli/Electronic device & accessory.png","stimuli/Hand labour tool & accessory.png","stimuli/Outdoor activity & sport item.png",NA,"Outdoor activity & sport item",4,1,"stimuli/objects/exercisebike.jpg",4,1,0.7226,1
16,NA,NA,NA,NA,NA,"stimuli/m_black.jpg","stimuli/Outdoor activity & sport item.png","stimuli/Electronic device & accessory.png","stimuli/Kitchen & utensil.png","stimuli/Hand labour tool & accessory.png",NA,"Outdoor activity & sport item",1,1,"stimuli/objects/backpack01a.jpg",1,1,0.9696,1
16,NA,NA,NA,NA,NA,"stimuli/m_orange.jpg","stimuli/Kitchen & utensil.png","stimuli/Hand labour tool & accessory.png","stimuli/Outdoor activity & sport item.png","stimuli/Electronic device & accessory.png",NA,"Hand labour tool & accessory",2,1,"stimuli/objects/nailgun.jpg",2,1,0.4585,0
16,NA,NA,NA,NA,NA,"stimuli/m_orange.jpg","stimuli/Kitchen & utensil.png","stimuli/Outdoor activity & sport item.png","stimuli/Electronic device & accessory.png","stimuli/Hand labour tool & accessory.png",NA,"Kitchen & utensil",1,0,"stimuli/objects/icebucket.jpg",4,0,1.6678,0
16,NA,NA,NA,NA,NA,"stimuli/m_orange.jpg","stimuli/Outdoor activity & sport item.png","stimuli/Kitchen & utensil.png","stimuli/Electronic device & accessory.png","stimuli/Hand labour tool & accessory.png",NA,"Outdoor activity & sport item",1,0,"stimuli/objects/handgripper.jpg",4,0,0.6116,0
16,NA,NA,NA,NA,NA,"stimuli/m_orange.jpg","stimuli/Outdoor activity & sport item.png","stimuli/Electronic device & accessory.png","stimuli/Hand labour tool & accessory.png","stimuli/Kitchen & utensil.png",NA,"Hand labour tool & accessory",3,1,"stimuli/objects/gastank.jpg",3,1,1.8141,0
16,NA,NA,NA,NA,NA,"stimuli/m_orange.jpg","stimuli/Kitchen & utensil.png","stimuli/Hand labour tool & accessory.png","stimuli/Electronic device & accessory.png","stimuli/Outdoor activity & sport item.png",NA,"Kitchen & utensil",1,0,"stimuli/objects/teapot.jpg",2,0,0.4486,0
16,NA,NA,NA,NA,NA,"stimuli/m_orange.jpg","stimuli/Hand labour tool & accessory.png","stimuli/Kitchen & utensil.png","stimuli/Electronic device & accessory.png","stimuli/Outdoor activity & sport item.png",NA,"Hand labour tool & accessory",1,1,"stimuli/objects/hoe.jpg",1,1,0.6237,0
16,NA,NA,NA,NA,NA,"stimuli/m_orange.jpg","stimuli/Outdoor activity & sport item.png","stimuli/Hand labour tool & accessory.png","stimuli/Electronic device & accessory.png","stimuli/Kitchen & utensil.png",NA,"Hand labour tool & accessory",2,1,"stimuli/objects/squeegee01b.jpg",2,1,1.768,0
